------------ Data File Created By ActiGraph GT3X+ ActiLife v6.13.4 Firmware v1.7.2 date format M/d/yyyy at 100 Hz  Filter Normal -----------
Serial Number: TAS1H50200609
Start Time 17:43:00
Start Date 4/28/2023
Epoch Period (hh:mm:ss) 00:00:00
Download Time 17:57:30
Download Date 4/28/2023
Current Memory Address: 0
Current Battery Voltage: 4.19     Mode = 12
--------------------------------------------------
Timestamp,Accelerometer X,Accelerometer Y,Accelerometer Z
4/28/2023 17:43:00.000,-1.008,-0.152,-0.262
4/28/2023 17:43:00.010,-0.98,-0.164,-0.262
4/28/2023 17:43:00.020,-0.969,-0.172,-0.262
4/28/2023 17:43:00.030,-0.965,-0.172,-0.258
4/28/2023 17:43:00.040,-0.965,-0.16,-0.254
4/28/2023 17:43:00.050,-0.973,-0.16,-0.25
4/28/2023 17:43:00.060,-0.973,-0.172,-0.254
4/28/2023 17:43:00.070,-0.973,-0.18,-0.25
4/28/2023 17:43:00.080,-0.973,-0.184,-0.258
4/28/2023 17:43:00.090,-0.965,-0.184,-0.262
4/28/2023 17:43:00.100,-0.965,-0.184,-0.262
4/28/2023 17:43:00.110,-0.957,-0.188,-0.258
4/28/2023 17:43:00.120,-0.961,-0.188,-0.242
4/28/2023 17:43:00.130,-0.965,-0.18,-0.242
4/28/2023 17:43:00.140,-0.973,-0.172,-0.246
4/28/2023 17:43:00.150,-0.977,-0.168,-0.254
4/28/2023 17:43:00.160,-0.973,-0.168,-0.258
4/28/2023 17:43:00.170,-0.965,-0.176,-0.258
4/28/2023 17:43:00.180,-0.969,-0.184,-0.258
4/28/2023 17:43:00.190,-0.973,-0.184,-0.258
4/28/2023 17:43:00.200,-0.969,-0.18,-0.254
4/28/2023 17:43:00.210,-0.965,-0.18,-0.246
4/28/2023 17:43:00.220,-0.961,-0.176,-0.246
4/28/2023 17:43:00.230,-0.961,-0.18,-0.246
4/28/2023 17:43:00.240,-0.969,-0.176,-0.242
4/28/2023 17:43:00.250,-0.965,-0.172,-0.246
4/28/2023 17:43:00.260,-0.969,-0.176,-0.246
4/28/2023 17:43:00.270,-0.973,-0.176,-0.254
4/28/2023 17:43:00.280,-0.973,-0.172,-0.258
4/28/2023 17:43:00.290,-0.973,-0.172,-0.262
4/28/2023 17:43:00.300,-0.973,-0.176,-0.262
4/28/2023 17:43:00.310,-0.969,-0.18,-0.262
4/28/2023 17:43:00.320,-0.969,-0.18,-0.254
4/28/2023 17:43:00.330,-0.965,-0.176,-0.246
4/28/2023 17:43:00.340,-0.969,-0.16,-0.242
4/28/2023 17:43:00.350,-0.973,-0.16,-0.246
4/28/2023 17:43:00.360,-0.977,-0.16,-0.25
4/28/2023 17:43:00.370,-0.977,-0.156,-0.25
4/28/2023 17:43:00.380,-0.973,-0.16,-0.254
4/28/2023 17:43:00.390,-0.965,-0.164,-0.262
4/28/2023 17:43:00.400,-0.965,-0.172,-0.258
4/28/2023 17:43:00.410,-0.969,-0.18,-0.258
4/28/2023 17:43:00.420,-0.973,-0.176,-0.254
4/28/2023 17:43:00.430,-0.973,-0.18,-0.254
4/28/2023 17:43:00.440,-0.969,-0.18,-0.258
4/28/2023 17:43:00.450,-0.969,-0.172,-0.25
4/28/2023 17:43:00.460,-0.961,-0.168,-0.254
4/28/2023 17:43:00.470,-0.961,-0.168,-0.254
4/28/2023 17:43:00.480,-0.961,-0.16,-0.258
4/28/2023 17:43:00.490,-0.961,-0.164,-0.254
4/28/2023 17:43:00.500,-0.973,-0.168,-0.254
4/28/2023 17:43:00.510,-0.973,-0.176,-0.246
4/28/2023 17:43:00.520,-0.977,-0.18,-0.254
4/28/2023 17:43:00.530,-0.977,-0.168,-0.254
4/28/2023 17:43:00.540,-0.973,-0.156,-0.246
4/28/2023 17:43:00.550,-0.973,-0.152,-0.25
4/28/2023 17:43:00.560,-0.969,-0.156,-0.246
4/28/2023 17:43:00.570,-0.965,-0.16,-0.25
4/28/2023 17:43:00.580,-0.969,-0.168,-0.254
4/28/2023 17:43:00.590,-0.973,-0.176,-0.25
4/28/2023 17:43:00.600,-0.973,-0.172,-0.254
4/28/2023 17:43:00.610,-0.973,-0.176,-0.246
4/28/2023 17:43:00.620,-0.969,-0.18,-0.246
4/28/2023 17:43:00.630,-0.973,-0.176,-0.246
4/28/2023 17:43:00.640,-0.969,-0.18,-0.25
4/28/2023 17:43:00.650,-0.973,-0.176,-0.246
4/28/2023 17:43:00.660,-0.969,-0.176,-0.242
4/28/2023 17:43:00.670,-0.969,-0.18,-0.242
4/28/2023 17:43:00.680,-0.969,-0.176,-0.242
4/28/2023 17:43:00.690,-0.973,-0.172,-0.242
4/28/2023 17:43:00.700,-0.977,-0.176,-0.242
4/28/2023 17:43:00.710,-0.977,-0.176,-0.238
4/28/2023 17:43:00.720,-0.969,-0.172,-0.234
4/28/2023 17:43:00.730,-0.965,-0.164,-0.238
4/28/2023 17:43:00.740,-0.965,-0.16,-0.238
4/28/2023 17:43:00.750,-0.961,-0.164,-0.238
4/28/2023 17:43:00.760,-0.969,-0.176,-0.238
4/28/2023 17:43:00.770,-0.973,-0.18,-0.234
4/28/2023 17:43:00.780,-0.977,-0.184,-0.234
4/28/2023 17:43:00.790,-0.969,-0.176,-0.234
4/28/2023 17:43:00.800,-0.973,-0.176,-0.234
4/28/2023 17:43:00.810,-0.973,-0.176,-0.234
4/28/2023 17:43:00.820,-0.969,-0.176,-0.234
4/28/2023 17:43:00.830,-0.965,-0.172,-0.238
4/28/2023 17:43:00.840,-0.965,-0.164,-0.238
4/28/2023 17:43:00.850,-0.973,-0.16,-0.23
4/28/2023 17:43:00.860,-0.973,-0.164,-0.23
4/28/2023 17:43:00.870,-0.965,-0.176,-0.227
4/28/2023 17:43:00.880,-0.965,-0.18,-0.223
4/28/2023 17:43:00.890,-0.969,-0.168,-0.223
4/28/2023 17:43:00.900,-0.98,-0.176,-0.227
4/28/2023 17:43:00.910,-0.98,-0.176,-0.227
4/28/2023 17:43:00.920,-0.973,-0.18,-0.223
4/28/2023 17:43:00.930,-0.969,-0.195,-0.223
4/28/2023 17:43:00.940,-0.973,-0.207,-0.23
4/28/2023 17:43:00.950,-0.98,-0.184,-0.234
4/28/2023 17:43:00.960,-0.977,-0.164,-0.242
4/28/2023 17:43:00.970,-0.965,-0.164,-0.254
4/28/2023 17:43:00.980,-0.973,-0.156,-0.254
4/28/2023 17:43:00.990,-0.984,-0.156,-0.258
4/28/2023 17:43:01.000,-1,-0.168,-0.258
4/28/2023 17:43:01.010,-0.992,-0.18,-0.246
4/28/2023 17:43:01.020,-0.98,-0.188,-0.242
4/28/2023 17:43:01.030,-0.977,-0.184,-0.238
4/28/2023 17:43:01.040,-0.977,-0.199,-0.234
4/28/2023 17:43:01.050,-0.973,-0.211,-0.23
4/28/2023 17:43:01.060,-0.957,-0.203,-0.234
4/28/2023 17:43:01.070,-0.953,-0.207,-0.23
4/28/2023 17:43:01.080,-0.957,-0.207,-0.234
4/28/2023 17:43:01.090,-0.969,-0.195,-0.234
4/28/2023 17:43:01.100,-0.969,-0.184,-0.238
4/28/2023 17:43:01.110,-0.973,-0.184,-0.234
4/28/2023 17:43:01.120,-0.973,-0.188,-0.23
4/28/2023 17:43:01.130,-0.973,-0.191,-0.227
4/28/2023 17:43:01.140,-0.969,-0.199,-0.223
4/28/2023 17:43:01.150,-0.977,-0.195,-0.219
4/28/2023 17:43:01.160,-0.98,-0.18,-0.219
4/28/2023 17:43:01.170,-0.977,-0.176,-0.223
4/28/2023 17:43:01.180,-0.977,-0.18,-0.227
4/28/2023 17:43:01.190,-0.973,-0.18,-0.23
4/28/2023 17:43:01.200,-0.961,-0.168,-0.23
4/28/2023 17:43:01.210,-0.965,-0.164,-0.234
4/28/2023 17:43:01.220,-0.984,-0.16,-0.23
4/28/2023 17:43:01.230,-0.98,-0.176,-0.227
4/28/2023 17:43:01.240,-0.98,-0.184,-0.227
4/28/2023 17:43:01.250,-0.98,-0.184,-0.219
4/28/2023 17:43:01.260,-0.969,-0.195,-0.215
4/28/2023 17:43:01.270,-0.965,-0.211,-0.215
4/28/2023 17:43:01.280,-0.965,-0.215,-0.207
4/28/2023 17:43:01.290,-0.977,-0.203,-0.211
4/28/2023 17:43:01.300,-0.988,-0.191,-0.223
4/28/2023 17:43:01.310,-0.98,-0.176,-0.223
4/28/2023 17:43:01.320,-0.973,-0.172,-0.223
4/28/2023 17:43:01.330,-0.973,-0.18,-0.227
4/28/2023 17:43:01.340,-0.977,-0.18,-0.219
4/28/2023 17:43:01.350,-0.977,-0.172,-0.215
4/28/2023 17:43:01.360,-0.973,-0.168,-0.215
4/28/2023 17:43:01.370,-0.973,-0.172,-0.215
4/28/2023 17:43:01.380,-0.977,-0.18,-0.211
4/28/2023 17:43:01.390,-0.973,-0.191,-0.211
4/28/2023 17:43:01.400,-0.977,-0.18,-0.215
4/28/2023 17:43:01.410,-0.98,-0.18,-0.215
4/28/2023 17:43:01.420,-0.98,-0.168,-0.215
4/28/2023 17:43:01.430,-0.973,-0.172,-0.207
4/28/2023 17:43:01.440,-0.977,-0.176,-0.199
4/28/2023 17:43:01.450,-0.977,-0.18,-0.199
4/28/2023 17:43:01.460,-0.977,-0.18,-0.203
4/28/2023 17:43:01.470,-0.969,-0.18,-0.203
4/28/2023 17:43:01.480,-0.973,-0.172,-0.199
4/28/2023 17:43:01.490,-0.977,-0.168,-0.207
4/28/2023 17:43:01.500,-0.984,-0.164,-0.207
4/28/2023 17:43:01.510,-0.969,-0.16,-0.199
4/28/2023 17:43:01.520,-0.965,-0.16,-0.195
4/28/2023 17:43:01.530,-0.969,-0.164,-0.188
4/28/2023 17:43:01.540,-0.988,-0.18,-0.191
4/28/2023 17:43:01.550,-0.992,-0.191,-0.176
4/28/2023 17:43:01.560,-0.973,-0.188,-0.172
4/28/2023 17:43:01.570,-0.973,-0.207,-0.188
4/28/2023 17:43:01.580,-0.973,-0.211,-0.223
4/28/2023 17:43:01.590,-0.988,-0.191,-0.25
4/28/2023 17:43:01.600,-0.977,-0.164,-0.254
4/28/2023 17:43:01.610,-0.984,-0.137,-0.258
4/28/2023 17:43:01.620,-0.996,-0.133,-0.242
4/28/2023 17:43:01.630,-0.996,-0.141,-0.23
4/28/2023 17:43:01.640,-0.992,-0.16,-0.215
4/28/2023 17:43:01.650,-0.988,-0.195,-0.199
4/28/2023 17:43:01.660,-0.984,-0.223,-0.215
4/28/2023 17:43:01.670,-0.992,-0.215,-0.234
4/28/2023 17:43:01.680,-1,-0.203,-0.246
4/28/2023 17:43:01.690,-0.996,-0.199,-0.254
4/28/2023 17:43:01.700,-0.992,-0.199,-0.25
4/28/2023 17:43:01.710,-0.984,-0.207,-0.242
4/28/2023 17:43:01.720,-0.98,-0.215,-0.215
4/28/2023 17:43:01.730,-0.969,-0.223,-0.176
4/28/2023 17:43:01.740,-0.965,-0.223,-0.129
4/28/2023 17:43:01.750,-0.984,-0.203,-0.117
4/28/2023 17:43:01.760,-0.996,-0.191,-0.129
4/28/2023 17:43:01.770,-0.992,-0.184,-0.152
4/28/2023 17:43:01.780,-0.977,-0.172,-0.18
4/28/2023 17:43:01.790,-0.973,-0.16,-0.203
4/28/2023 17:43:01.800,-0.977,-0.16,-0.207
4/28/2023 17:43:01.810,-0.988,-0.148,-0.207
4/28/2023 17:43:01.820,-0.992,-0.133,-0.191
4/28/2023 17:43:01.830,-0.988,-0.145,-0.188
4/28/2023 17:43:01.840,-0.984,-0.152,-0.176
4/28/2023 17:43:01.850,-0.98,-0.168,-0.164
4/28/2023 17:43:01.860,-0.977,-0.176,-0.16
4/28/2023 17:43:01.870,-0.98,-0.18,-0.156
4/28/2023 17:43:01.880,-0.988,-0.184,-0.16
4/28/2023 17:43:01.890,-0.992,-0.188,-0.164
4/28/2023 17:43:01.900,-0.992,-0.191,-0.168
4/28/2023 17:43:01.910,-0.996,-0.172,-0.176
4/28/2023 17:43:01.920,-0.992,-0.168,-0.176
4/28/2023 17:43:01.930,-1,-0.156,-0.184
4/28/2023 17:43:01.940,-0.992,-0.145,-0.172
4/28/2023 17:43:01.950,-0.984,-0.148,-0.16
4/28/2023 17:43:01.960,-0.984,-0.152,-0.156
4/28/2023 17:43:01.970,-0.988,-0.156,-0.148
4/28/2023 17:43:01.980,-0.996,-0.152,-0.152
4/28/2023 17:43:01.990,-0.992,-0.152,-0.148
4/28/2023 17:43:02.000,-1.008,-0.152,-0.164
4/28/2023 17:43:02.010,-0.992,-0.156,-0.164
4/28/2023 17:43:02.020,-0.992,-0.164,-0.172
4/28/2023 17:43:02.030,-0.992,-0.16,-0.172
4/28/2023 17:43:02.040,-0.992,-0.164,-0.156
4/28/2023 17:43:02.050,-0.996,-0.164,-0.152
4/28/2023 17:43:02.060,-0.996,-0.152,-0.141
4/28/2023 17:43:02.070,-0.992,-0.148,-0.137
4/28/2023 17:43:02.080,-0.992,-0.148,-0.137
4/28/2023 17:43:02.090,-0.988,-0.152,-0.133
4/28/2023 17:43:02.100,-0.992,-0.152,-0.133
4/28/2023 17:43:02.110,-0.992,-0.148,-0.145
4/28/2023 17:43:02.120,-0.992,-0.148,-0.152
4/28/2023 17:43:02.130,-0.988,-0.152,-0.16
4/28/2023 17:43:02.140,-0.984,-0.176,-0.145
4/28/2023 17:43:02.150,-0.992,-0.176,-0.141
4/28/2023 17:43:02.160,-1.008,-0.137,-0.152
4/28/2023 17:43:02.170,-1.012,-0.117,-0.152
4/28/2023 17:43:02.180,-1.008,-0.117,-0.156
4/28/2023 17:43:02.190,-0.996,-0.117,-0.148
4/28/2023 17:43:02.200,-0.984,-0.117,-0.141
4/28/2023 17:43:02.210,-0.988,-0.117,-0.141
4/28/2023 17:43:02.220,-0.996,-0.117,-0.145
4/28/2023 17:43:02.230,-1,-0.117,-0.145
4/28/2023 17:43:02.240,-0.996,-0.113,-0.148
4/28/2023 17:43:02.250,-0.992,-0.121,-0.152
4/28/2023 17:43:02.260,-0.996,-0.125,-0.148
4/28/2023 17:43:02.270,-1,-0.117,-0.145
4/28/2023 17:43:02.280,-0.992,-0.113,-0.137
4/28/2023 17:43:02.290,-0.988,-0.113,-0.137
4/28/2023 17:43:02.300,-1,-0.117,-0.129
4/28/2023 17:43:02.310,-1.004,-0.125,-0.125
4/28/2023 17:43:02.320,-1,-0.141,-0.125
4/28/2023 17:43:02.330,-1,-0.129,-0.129
4/28/2023 17:43:02.340,-0.988,-0.129,-0.133
4/28/2023 17:43:02.350,-0.988,-0.145,-0.137
4/28/2023 17:43:02.360,-0.996,-0.148,-0.137
4/28/2023 17:43:02.370,-0.992,-0.156,-0.133
4/28/2023 17:43:02.380,-0.996,-0.164,-0.141
4/28/2023 17:43:02.390,-1,-0.145,-0.133
4/28/2023 17:43:02.400,-1.008,-0.086,-0.145
4/28/2023 17:43:02.410,-1.02,-0.059,-0.129
4/28/2023 17:43:02.420,-1.016,-0.055,-0.133
4/28/2023 17:43:02.430,-1.012,-0.066,-0.137
4/28/2023 17:43:02.440,-1.008,-0.082,-0.133
4/28/2023 17:43:02.450,-1.008,-0.105,-0.129
4/28/2023 17:43:02.460,-1.004,-0.125,-0.125
4/28/2023 17:43:02.470,-1,-0.141,-0.125
4/28/2023 17:43:02.480,-0.992,-0.156,-0.125
4/28/2023 17:43:02.490,-0.984,-0.16,-0.121
4/28/2023 17:43:02.500,-0.992,-0.168,-0.113
4/28/2023 17:43:02.510,-1,-0.172,-0.113
4/28/2023 17:43:02.520,-1.004,-0.16,-0.121
4/28/2023 17:43:02.530,-1.008,-0.145,-0.125
4/28/2023 17:43:02.540,-1.008,-0.129,-0.133
4/28/2023 17:43:02.550,-1.008,-0.121,-0.141
4/28/2023 17:43:02.560,-1.004,-0.125,-0.141
4/28/2023 17:43:02.570,-1.004,-0.137,-0.145
4/28/2023 17:43:02.580,-0.996,-0.145,-0.145
4/28/2023 17:43:02.590,-1,-0.141,-0.145
4/28/2023 17:43:02.600,-0.996,-0.129,-0.133
4/28/2023 17:43:02.610,-0.988,-0.133,-0.125
4/28/2023 17:43:02.620,-0.992,-0.129,-0.125
4/28/2023 17:43:02.630,-1.004,-0.121,-0.121
4/28/2023 17:43:02.640,-1.004,-0.117,-0.125
4/28/2023 17:43:02.650,-1.008,-0.117,-0.137
4/28/2023 17:43:02.660,-1.004,-0.117,-0.137
4/28/2023 17:43:02.670,-1.004,-0.121,-0.145
4/28/2023 17:43:02.680,-1,-0.129,-0.148
4/28/2023 17:43:02.690,-0.992,-0.145,-0.152
4/28/2023 17:43:02.700,-0.992,-0.148,-0.152
4/28/2023 17:43:02.710,-0.992,-0.148,-0.148
4/28/2023 17:43:02.720,-1,-0.145,-0.148
4/28/2023 17:43:02.730,-0.996,-0.133,-0.141
4/28/2023 17:43:02.740,-0.992,-0.125,-0.141
4/28/2023 17:43:02.750,-0.996,-0.117,-0.141
4/28/2023 17:43:02.760,-1.004,-0.125,-0.137
4/28/2023 17:43:02.770,-1.004,-0.145,-0.141
4/28/2023 17:43:02.780,-1,-0.148,-0.156
4/28/2023 17:43:02.790,-0.996,-0.141,-0.152
4/28/2023 17:43:02.800,-0.996,-0.129,-0.156
4/28/2023 17:43:02.810,-0.996,-0.125,-0.152
4/28/2023 17:43:02.820,-0.996,-0.129,-0.145
4/28/2023 17:43:02.830,-0.996,-0.133,-0.145
4/28/2023 17:43:02.840,-0.996,-0.133,-0.145
4/28/2023 17:43:02.850,-1,-0.137,-0.145
4/28/2023 17:43:02.860,-0.992,-0.137,-0.148
4/28/2023 17:43:02.870,-0.988,-0.141,-0.156
4/28/2023 17:43:02.880,-0.988,-0.141,-0.152
4/28/2023 17:43:02.890,-0.996,-0.129,-0.156
4/28/2023 17:43:02.900,-1.004,-0.137,-0.156
4/28/2023 17:43:02.910,-1,-0.148,-0.148
4/28/2023 17:43:02.920,-1,-0.16,-0.152
4/28/2023 17:43:02.930,-1.004,-0.16,-0.148
4/28/2023 17:43:02.940,-1.008,-0.137,-0.16
4/28/2023 17:43:02.950,-1,-0.109,-0.16
4/28/2023 17:43:02.960,-0.988,-0.109,-0.156
4/28/2023 17:43:02.970,-0.984,-0.109,-0.152
4/28/2023 17:43:02.980,-0.988,-0.113,-0.141
4/28/2023 17:43:02.990,-1,-0.117,-0.137
4/28/2023 17:43:03.000,-1.004,-0.129,-0.148
4/28/2023 17:43:03.010,-1,-0.145,-0.145
4/28/2023 17:43:03.020,-1,-0.152,-0.156
4/28/2023 17:43:03.030,-0.996,-0.16,-0.164
4/28/2023 17:43:03.040,-0.992,-0.16,-0.172
4/28/2023 17:43:03.050,-0.996,-0.156,-0.172
4/28/2023 17:43:03.060,-0.992,-0.16,-0.172
4/28/2023 17:43:03.070,-0.984,-0.16,-0.164
4/28/2023 17:43:03.080,-0.98,-0.141,-0.148
4/28/2023 17:43:03.090,-0.984,-0.137,-0.129
4/28/2023 17:43:03.100,-0.992,-0.137,-0.125
4/28/2023 17:43:03.110,-1.004,-0.137,-0.141
4/28/2023 17:43:03.120,-1.012,-0.145,-0.172
4/28/2023 17:43:03.130,-0.992,-0.133,-0.191
4/28/2023 17:43:03.140,-1.008,-0.129,-0.207
4/28/2023 17:43:03.150,-0.996,-0.125,-0.215
4/28/2023 17:43:03.160,-0.996,-0.141,-0.219
4/28/2023 17:43:03.170,-0.996,-0.141,-0.211
4/28/2023 17:43:03.180,-0.988,-0.148,-0.203
4/28/2023 17:43:03.190,-1.012,-0.184,-0.211
4/28/2023 17:43:03.200,-1.004,-0.219,-0.195
4/28/2023 17:43:03.210,-0.984,-0.195,-0.188
4/28/2023 17:43:03.220,-0.984,-0.188,-0.188
4/28/2023 17:43:03.230,-0.984,-0.188,-0.188
4/28/2023 17:43:03.240,-0.98,-0.184,-0.199
4/28/2023 17:43:03.250,-0.988,-0.176,-0.199
4/28/2023 17:43:03.260,-0.992,-0.172,-0.191
4/28/2023 17:43:03.270,-1.004,-0.152,-0.191
4/28/2023 17:43:03.280,-1,-0.152,-0.195
4/28/2023 17:43:03.290,-0.996,-0.16,-0.191
4/28/2023 17:43:03.300,-0.996,-0.16,-0.188
4/28/2023 17:43:03.310,-0.992,-0.164,-0.184
4/28/2023 17:43:03.320,-0.996,-0.164,-0.184
4/28/2023 17:43:03.330,-1.004,-0.172,-0.195
4/28/2023 17:43:03.340,-0.992,-0.188,-0.188
4/28/2023 17:43:03.350,-0.98,-0.191,-0.176
4/28/2023 17:43:03.360,-0.988,-0.18,-0.18
4/28/2023 17:43:03.370,-1.004,-0.18,-0.18
4/28/2023 17:43:03.380,-1.008,-0.172,-0.18
4/28/2023 17:43:03.390,-1.004,-0.16,-0.172
4/28/2023 17:43:03.400,-1.008,-0.176,-0.18
4/28/2023 17:43:03.410,-0.996,-0.18,-0.172
4/28/2023 17:43:03.420,-0.992,-0.184,-0.168
4/28/2023 17:43:03.430,-1,-0.184,-0.168
4/28/2023 17:43:03.440,-0.996,-0.184,-0.164
4/28/2023 17:43:03.450,-1,-0.184,-0.16
4/28/2023 17:43:03.460,-0.996,-0.184,-0.16
4/28/2023 17:43:03.470,-1,-0.176,-0.156
4/28/2023 17:43:03.480,-1.008,-0.172,-0.152
4/28/2023 17:43:03.490,-1.008,-0.164,-0.152
4/28/2023 17:43:03.500,-1.023,-0.168,-0.156
4/28/2023 17:43:03.510,-1.027,-0.18,-0.145
4/28/2023 17:43:03.520,-1,-0.188,-0.141
4/28/2023 17:43:03.530,-1.047,-0.234,-0.141
4/28/2023 17:43:03.540,-1.078,-0.262,-0.152
4/28/2023 17:43:03.550,-1.113,-0.289,-0.172
4/28/2023 17:43:03.560,-1.184,-0.313,-0.211
4/28/2023 17:43:03.570,-1.305,-0.371,-0.332
4/28/2023 17:43:03.580,-1.508,-0.41,-0.371
4/28/2023 17:43:03.590,-1.703,-0.469,-0.281
4/28/2023 17:43:03.600,-1.82,-0.535,-0.277
4/28/2023 17:43:03.610,-1.875,-0.652,-0.305
4/28/2023 17:43:03.620,-1.859,-0.645,-0.305
4/28/2023 17:43:03.630,-1.793,-0.512,-0.324
4/28/2023 17:43:03.640,-1.754,-0.445,-0.32
4/28/2023 17:43:03.650,-1.613,-0.488,-0.258
4/28/2023 17:43:03.660,-1.371,-0.59,-0.238
4/28/2023 17:43:03.670,-1.211,-0.703,-0.121
4/28/2023 17:43:03.680,-0.91,-0.879,0.262
4/28/2023 17:43:03.690,-0.785,-1.031,0.363
4/28/2023 17:43:03.700,-0.691,-1.191,0.355
4/28/2023 17:43:03.710,-0.227,-1.41,0.332
4/28/2023 17:43:03.720,-0.352,-1.344,0.188
4/28/2023 17:43:03.730,-0.379,-1.125,0.16
4/28/2023 17:43:03.740,-0.523,-0.961,0.16
4/28/2023 17:43:03.750,-0.707,-0.746,0.195
4/28/2023 17:43:03.760,-0.898,-0.645,0.199
4/28/2023 17:43:03.770,-0.906,-0.59,0.188
4/28/2023 17:43:03.780,-0.973,-0.457,0.141
4/28/2023 17:43:03.790,-1.074,-0.328,0.117
4/28/2023 17:43:03.800,-1.137,-0.27,0.086
4/28/2023 17:43:03.810,-1.172,-0.254,0.047
4/28/2023 17:43:03.820,-1.195,-0.262,-0.008
4/28/2023 17:43:03.830,-1.227,-0.281,-0.051
4/28/2023 17:43:03.840,-1.258,-0.289,-0.09
4/28/2023 17:43:03.850,-1.266,-0.293,-0.105
4/28/2023 17:43:03.860,-1.27,-0.273,-0.102
4/28/2023 17:43:03.870,-1.297,-0.188,-0.102
4/28/2023 17:43:03.880,-1.348,-0.051,-0.113
4/28/2023 17:43:03.890,-1.387,0.074,-0.125
4/28/2023 17:43:03.900,-1.383,0.191,-0.18
4/28/2023 17:43:03.910,-1.426,0.281,-0.258
4/28/2023 17:43:03.920,-1.461,0.297,-0.27
4/28/2023 17:43:03.930,-1.438,0.289,-0.246
4/28/2023 17:43:03.940,-1.398,0.293,-0.227
4/28/2023 17:43:03.950,-1.391,0.34,-0.262
4/28/2023 17:43:03.960,-1.395,0.43,-0.328
4/28/2023 17:43:03.970,-1.391,0.543,-0.43
4/28/2023 17:43:03.980,-1.367,0.656,-0.512
4/28/2023 17:43:03.990,-1.344,0.793,-0.609
4/28/2023 17:43:04.000,-1.328,0.871,-0.668
4/28/2023 17:43:04.010,-1.277,0.902,-0.676
4/28/2023 17:43:04.020,-1.234,0.938,-0.664
4/28/2023 17:43:04.030,-1.223,0.945,-0.668
4/28/2023 17:43:04.040,-1.234,0.828,-0.664
4/28/2023 17:43:04.050,-1.285,0.805,-0.684
4/28/2023 17:43:04.060,-1.316,0.711,-0.512
4/28/2023 17:43:04.070,-1.645,-0.328,0.023
4/28/2023 17:43:04.080,-1.336,-1.031,0.332
4/28/2023 17:43:04.090,-1.063,-0.441,0.262
4/28/2023 17:43:04.100,-1.223,-0.074,0.113
4/28/2023 17:43:04.110,-1.148,-0.102,0.133
4/28/2023 17:43:04.120,-0.957,0.078,0.039
4/28/2023 17:43:04.130,-1.105,0.164,-0.188
4/28/2023 17:43:04.140,-1.297,0.082,-0.297
4/28/2023 17:43:04.150,-1.23,-0.016,-0.277
4/28/2023 17:43:04.160,-1.035,-0.117,-0.258
4/28/2023 17:43:04.170,-0.926,-0.18,-0.273
4/28/2023 17:43:04.180,-0.895,-0.094,-0.434
4/28/2023 17:43:04.190,-1.152,0.121,-0.387
4/28/2023 17:43:04.200,-1.102,0.121,-0.27
4/28/2023 17:43:04.210,-1.035,0.063,-0.199
4/28/2023 17:43:04.220,-1.023,0.027,-0.148
4/28/2023 17:43:04.230,-1.012,-0.047,-0.129
4/28/2023 17:43:04.240,-0.969,-0.09,-0.172
4/28/2023 17:43:04.250,-0.984,-0.047,-0.191
4/28/2023 17:43:04.260,-0.992,-0.051,-0.188
4/28/2023 17:43:04.270,-0.996,-0.051,-0.219
4/28/2023 17:43:04.280,-1,-0.066,-0.246
4/28/2023 17:43:04.290,-1,-0.105,-0.266
4/28/2023 17:43:04.300,-1,-0.117,-0.285
4/28/2023 17:43:04.310,-0.988,-0.121,-0.277
4/28/2023 17:43:04.320,-0.992,-0.121,-0.262
4/28/2023 17:43:04.330,-0.988,-0.129,-0.238
4/28/2023 17:43:04.340,-0.996,-0.137,-0.211
4/28/2023 17:43:04.350,-1.004,-0.141,-0.215
4/28/2023 17:43:04.360,-1.008,-0.137,-0.227
4/28/2023 17:43:04.370,-1.012,-0.121,-0.238
4/28/2023 17:43:04.380,-1.008,-0.09,-0.238
4/28/2023 17:43:04.390,-0.996,-0.063,-0.242
4/28/2023 17:43:04.400,-1.008,-0.012,-0.234
4/28/2023 17:43:04.410,-1.027,0.027,-0.23
4/28/2023 17:43:04.420,-1.031,0.047,-0.203
4/28/2023 17:43:04.430,-1.02,0.027,-0.18
4/28/2023 17:43:04.440,-1.023,0.02,-0.184
4/28/2023 17:43:04.450,-1.02,0.004,-0.195
4/28/2023 17:43:04.460,-1.023,-0.016,-0.254
4/28/2023 17:43:04.470,-1.039,-0.039,-0.313
4/28/2023 17:43:04.480,-1.059,-0.059,-0.348
4/28/2023 17:43:04.490,-1.094,-0.082,-0.359
4/28/2023 17:43:04.500,-1.156,-0.117,-0.285
4/28/2023 17:43:04.510,-1.234,-0.133,-0.211
4/28/2023 17:43:04.520,-1.301,-0.148,-0.152
4/28/2023 17:43:04.530,-1.406,-0.137,-0.094
4/28/2023 17:43:04.540,-1.488,-0.152,-0.07
4/28/2023 17:43:04.550,-1.555,-0.188,-0.074
4/28/2023 17:43:04.560,-1.613,-0.207,-0.078
4/28/2023 17:43:04.570,-1.645,-0.258,-0.09
4/28/2023 17:43:04.580,-1.699,-0.348,-0.137
4/28/2023 17:43:04.590,-1.75,-0.441,-0.199
4/28/2023 17:43:04.600,-1.777,-0.629,-0.262
4/28/2023 17:43:04.610,-1.785,-0.902,-0.297
4/28/2023 17:43:04.620,-1.895,-0.918,-0.348
4/28/2023 17:43:04.630,-1.891,-1.266,-0.473
4/28/2023 17:43:04.640,-1.961,-1.215,-0.477
4/28/2023 17:43:04.650,-2.457,-1.105,-0.371
4/28/2023 17:43:04.660,-2.344,-1.227,-0.262
4/28/2023 17:43:04.670,-2.207,-1.121,-0.203
4/28/2023 17:43:04.680,-1.949,-1.227,-0.281
4/28/2023 17:43:04.690,-1.496,-1.398,-0.297
4/28/2023 17:43:04.700,-1.316,-1.078,-0.582
4/28/2023 17:43:04.710,-1.199,-0.512,-0.711
4/28/2023 17:43:04.720,-1.695,-0.172,-0.824
4/28/2023 17:43:04.730,-1.836,-0.301,-0.445
4/28/2023 17:43:04.740,-1.426,-0.637,-0.105
4/28/2023 17:43:04.750,-1.074,-0.906,0.152
4/28/2023 17:43:04.760,-0.797,-0.992,0.219
4/28/2023 17:43:04.770,-0.625,-0.961,0.188
4/28/2023 17:43:04.780,-0.473,-0.766,0.133
4/28/2023 17:43:04.790,-0.371,-0.633,0.141
4/28/2023 17:43:04.800,-0.398,-0.555,0.156
4/28/2023 17:43:04.810,-0.48,-0.41,0.172
4/28/2023 17:43:04.820,-0.57,-0.277,0.188
4/28/2023 17:43:04.830,-0.586,-0.254,0.203
4/28/2023 17:43:04.840,-0.648,-0.285,0.195
4/28/2023 17:43:04.850,-0.68,-0.324,0.172
4/28/2023 17:43:04.860,-0.719,-0.309,0.113
4/28/2023 17:43:04.870,-0.813,-0.316,0.074
4/28/2023 17:43:04.880,-0.895,-0.25,0.051
4/28/2023 17:43:04.890,-1.035,-0.188,-0.023
4/28/2023 17:43:04.900,-1.141,-0.109,-0.098
4/28/2023 17:43:04.910,-1.266,-0.039,-0.156
4/28/2023 17:43:04.920,-1.387,-0.031,-0.164
4/28/2023 17:43:04.930,-1.523,0.004,-0.223
4/28/2023 17:43:04.940,-1.676,0.121,-0.285
4/28/2023 17:43:04.950,-1.863,0.211,-0.328
4/28/2023 17:43:04.960,-2.043,0.344,-0.371
4/28/2023 17:43:04.970,-2.305,0.5,-0.438
4/28/2023 17:43:04.980,-2.574,0.805,-0.504
4/28/2023 17:43:04.990,-2.688,1.098,-0.547
4/28/2023 17:43:05.000,-2.652,1.262,-0.617
4/28/2023 17:43:05.010,-2.492,1.336,-0.691
4/28/2023 17:43:05.020,-2.367,1.504,-0.836
4/28/2023 17:43:05.030,-2.152,1.852,-1
4/28/2023 17:43:05.040,-1.93,2.23,-1.141
4/28/2023 17:43:05.050,-1.73,2.145,-1.102
4/28/2023 17:43:05.060,-1.551,2.18,-1.184
4/28/2023 17:43:05.070,-1.504,2.191,-1.219
4/28/2023 17:43:05.080,-1.547,1.926,-1.172
4/28/2023 17:43:05.090,-1.52,1.531,-1.016
4/28/2023 17:43:05.100,-1.457,0.754,-0.414
4/28/2023 17:43:05.110,-1.355,-1.418,0.648
4/28/2023 17:43:05.120,-0.785,-2.457,1.113
4/28/2023 17:43:05.130,-1.066,-0.566,0.43
4/28/2023 17:43:05.140,-2.07,0.582,-0.578
4/28/2023 17:43:05.150,-2.848,0.449,-0.633
4/28/2023 17:43:05.160,-1.973,0.449,-0.156
4/28/2023 17:43:05.170,-0.906,0.258,-0.082
4/28/2023 17:43:05.180,-0.73,0.086,-0.262
4/28/2023 17:43:05.190,-0.938,-0.004,-0.383
4/28/2023 17:43:05.200,-0.918,0.074,-0.414
4/28/2023 17:43:05.210,-0.902,0.105,-0.383
4/28/2023 17:43:05.220,-1.016,0.105,-0.387
4/28/2023 17:43:05.230,-1.086,0.051,-0.504
4/28/2023 17:43:05.240,-1.164,-0.02,-0.316
4/28/2023 17:43:05.250,-1.039,-0.043,-0.301
4/28/2023 17:43:05.260,-1.023,-0.094,-0.266
4/28/2023 17:43:05.270,-0.953,-0.125,-0.262
4/28/2023 17:43:05.280,-0.957,-0.133,-0.25
4/28/2023 17:43:05.290,-0.98,-0.109,-0.234
4/28/2023 17:43:05.300,-1.016,-0.039,-0.242
4/28/2023 17:43:05.310,-1.023,-0.023,-0.273
4/28/2023 17:43:05.320,-0.992,-0.016,-0.289
4/28/2023 17:43:05.330,-1.004,0.02,-0.262
4/28/2023 17:43:05.340,-1.027,0.008,-0.207
4/28/2023 17:43:05.350,-1.031,-0.023,-0.16
4/28/2023 17:43:05.360,-1.039,-0.02,-0.145
4/28/2023 17:43:05.370,-1.043,-0.012,-0.16
4/28/2023 17:43:05.380,-1.039,0.07,-0.168
4/28/2023 17:43:05.390,-1.016,-0.051,-0.191
4/28/2023 17:43:05.400,-1.008,-0.004,-0.242
4/28/2023 17:43:05.410,-0.992,0.055,-0.293
4/28/2023 17:43:05.420,-1,0.047,-0.309
4/28/2023 17:43:05.430,-1.027,0.016,-0.293
4/28/2023 17:43:05.440,-1.043,-0.043,-0.309
4/28/2023 17:43:05.450,-1.051,-0.086,-0.328
4/28/2023 17:43:05.460,-1.09,-0.074,-0.266
4/28/2023 17:43:05.470,-1.137,-0.129,-0.258
4/28/2023 17:43:05.480,-1.16,-0.191,-0.316
4/28/2023 17:43:05.490,-1.168,-0.16,-0.305
4/28/2023 17:43:05.500,-1.219,-0.109,-0.305
4/28/2023 17:43:05.510,-1.273,-0.164,-0.32
4/28/2023 17:43:05.520,-1.367,-0.152,-0.277
4/28/2023 17:43:05.530,-1.465,-0.125,-0.211
4/28/2023 17:43:05.540,-1.516,-0.148,-0.141
4/28/2023 17:43:05.550,-1.555,-0.184,-0.066
4/28/2023 17:43:05.560,-1.594,-0.254,-0.059
4/28/2023 17:43:05.570,-1.637,-0.316,-0.109
4/28/2023 17:43:05.580,-1.688,-0.418,-0.18
4/28/2023 17:43:05.590,-1.734,-0.59,-0.254
4/28/2023 17:43:05.600,-1.793,-0.77,-0.305
4/28/2023 17:43:05.610,-1.992,-0.93,-0.289
4/28/2023 17:43:05.620,-2.27,-0.984,-0.258
4/28/2023 17:43:05.630,-2.582,-1.094,-0.18
4/28/2023 17:43:05.640,-2.641,-1.305,-0.199
4/28/2023 17:43:05.650,-2.516,-1.512,-0.199
4/28/2023 17:43:05.660,-2.164,-1.281,-0.121
4/28/2023 17:43:05.670,-2.008,-1.609,-0.102
4/28/2023 17:43:05.680,-1.305,-1.598,-0.141
4/28/2023 17:43:05.690,-0.688,-0.711,-0.625
4/28/2023 17:43:05.700,-1.406,-0.023,-0.984
4/28/2023 17:43:05.710,-2.188,0.27,-1.027
4/28/2023 17:43:05.720,-1.922,-0.09,-0.352
4/28/2023 17:43:05.730,-1.246,-0.609,0.133
4/28/2023 17:43:05.740,-0.898,-0.914,0.262
4/28/2023 17:43:05.750,-0.766,-0.914,0.316
4/28/2023 17:43:05.760,-0.52,-0.738,0.238
4/28/2023 17:43:05.770,-0.387,-0.594,0.148
4/28/2023 17:43:05.780,-0.449,-0.449,0.105
4/28/2023 17:43:05.790,-0.566,-0.281,0.105
4/28/2023 17:43:05.800,-0.547,-0.145,0.168
4/28/2023 17:43:05.810,-0.492,-0.156,0.199
4/28/2023 17:43:05.820,-0.535,-0.227,0.203
4/28/2023 17:43:05.830,-0.645,-0.281,0.156
4/28/2023 17:43:05.840,-0.68,-0.313,0.137
4/28/2023 17:43:05.850,-0.676,-0.313,0.086
4/28/2023 17:43:05.860,-0.734,-0.332,0.039
4/28/2023 17:43:05.870,-0.855,-0.293,-0.02
4/28/2023 17:43:05.880,-0.945,-0.23,-0.063
4/28/2023 17:43:05.890,-1.031,-0.199,-0.098
4/28/2023 17:43:05.900,-1.152,-0.184,-0.133
4/28/2023 17:43:05.910,-1.27,-0.188,-0.164
4/28/2023 17:43:05.920,-1.426,-0.215,-0.195
4/28/2023 17:43:05.930,-1.652,-0.203,-0.254
4/28/2023 17:43:05.940,-1.926,-0.094,-0.316
4/28/2023 17:43:05.950,-2.18,0.117,-0.387
4/28/2023 17:43:05.960,-2.371,0.328,-0.43
4/28/2023 17:43:05.970,-2.48,0.527,-0.5
4/28/2023 17:43:05.980,-2.637,0.852,-0.645
4/28/2023 17:43:05.990,-2.773,1.199,-0.723
4/28/2023 17:43:06.000,-2.762,1.512,-0.641
4/28/2023 17:43:06.010,-2.535,1.578,-0.574
4/28/2023 17:43:06.020,-2.273,1.594,-0.676
4/28/2023 17:43:06.030,-2.094,1.887,-0.941
4/28/2023 17:43:06.040,-1.809,2.613,-1.227
4/28/2023 17:43:06.050,-1.504,2.543,-1.141
4/28/2023 17:43:06.060,-1.355,2.578,-1.148
4/28/2023 17:43:06.070,-1.441,2.488,-1.113
4/28/2023 17:43:06.080,-1.586,1.984,-1
4/28/2023 17:43:06.090,-1.832,-0.031,0.188
4/28/2023 17:43:06.100,-1.5,-2.902,1.125
4/28/2023 17:43:06.110,-0.891,-1.594,0.77
4/28/2023 17:43:06.120,-1.531,0.402,-0.395
4/28/2023 17:43:06.130,-3.16,0.816,-1.055
4/28/2023 17:43:06.140,-2.766,0.98,-0.578
4/28/2023 17:43:06.150,-1.461,0.41,-0.215
4/28/2023 17:43:06.160,-0.801,0.016,-0.285
4/28/2023 17:43:06.170,-0.719,0.094,-0.383
4/28/2023 17:43:06.180,-0.566,0.098,-0.395
4/28/2023 17:43:06.190,-0.844,0.297,-0.766
4/28/2023 17:43:06.200,-1.313,0.488,-0.473
4/28/2023 17:43:06.210,-1.086,0.262,-0.426
4/28/2023 17:43:06.220,-1.082,0.156,-0.309
4/28/2023 17:43:06.230,-1.129,0.086,-0.254
4/28/2023 17:43:06.240,-1.023,-0.074,-0.25
4/28/2023 17:43:06.250,-0.969,-0.082,-0.297
4/28/2023 17:43:06.260,-0.949,-0.066,-0.277
4/28/2023 17:43:06.270,-0.988,-0.074,-0.25
4/28/2023 17:43:06.280,-1.012,-0.031,-0.234
4/28/2023 17:43:06.290,-1,-0.039,-0.258
4/28/2023 17:43:06.300,-0.988,-0.035,-0.309
4/28/2023 17:43:06.310,-1.004,0,-0.32
4/28/2023 17:43:06.320,-1,-0.031,-0.305
4/28/2023 17:43:06.330,-1,-0.051,-0.289
4/28/2023 17:43:06.340,-1,-0.023,-0.254
4/28/2023 17:43:06.350,-0.977,-0.113,-0.238
4/28/2023 17:43:06.360,-0.973,-0.051,-0.258
4/28/2023 17:43:06.370,-0.992,-0.012,-0.23
4/28/2023 17:43:06.380,-1.016,-0.063,-0.246
4/28/2023 17:43:06.390,-1.016,0.016,-0.289
4/28/2023 17:43:06.400,-1.016,0.004,-0.301
4/28/2023 17:43:06.410,-1.016,-0.055,-0.309
4/28/2023 17:43:06.420,-1.035,-0.051,-0.313
4/28/2023 17:43:06.430,-1.059,-0.02,-0.277
4/28/2023 17:43:06.440,-1.098,0.004,-0.203
4/28/2023 17:43:06.450,-1.137,-0.039,-0.18
4/28/2023 17:43:06.460,-1.172,-0.102,-0.23
4/28/2023 17:43:06.470,-1.215,-0.082,-0.262
4/28/2023 17:43:06.480,-1.266,-0.078,-0.258
4/28/2023 17:43:06.490,-1.324,-0.102,-0.285
4/28/2023 17:43:06.500,-1.367,-0.129,-0.262
4/28/2023 17:43:06.510,-1.422,-0.141,-0.219
4/28/2023 17:43:06.520,-1.492,-0.176,-0.18
4/28/2023 17:43:06.530,-1.539,-0.238,-0.148
4/28/2023 17:43:06.540,-1.605,-0.262,-0.145
4/28/2023 17:43:06.550,-1.684,-0.332,-0.164
4/28/2023 17:43:06.560,-1.723,-0.508,-0.223
4/28/2023 17:43:06.570,-1.793,-0.547,-0.281
4/28/2023 17:43:06.580,-1.875,-0.84,-0.273
4/28/2023 17:43:06.590,-2.063,-0.922,-0.145
4/28/2023 17:43:06.600,-2.375,-1.031,-0.027
4/28/2023 17:43:06.610,-2.609,-1.18,0.02
4/28/2023 17:43:06.620,-2.633,-1.438,-0.063
4/28/2023 17:43:06.630,-2.484,-1.605,-0.172
4/28/2023 17:43:06.640,-2.371,-1.492,-0.184
4/28/2023 17:43:06.650,-1.914,-1.711,-0.129
4/28/2023 17:43:06.660,-1.246,-1.645,-0.242
4/28/2023 17:43:06.670,-0.813,-0.602,-0.906
4/28/2023 17:43:06.680,-1.316,0.266,-1.074
4/28/2023 17:43:06.690,-2.32,0.285,-1.246
4/28/2023 17:43:06.700,-1.93,-0.16,-0.422
4/28/2023 17:43:06.710,-1.164,-0.691,0.156
4/28/2023 17:43:06.720,-0.742,-1.094,0.316
4/28/2023 17:43:06.730,-0.547,-1.027,0.371
4/28/2023 17:43:06.740,-0.434,-0.691,0.25
4/28/2023 17:43:06.750,-0.418,-0.559,0.137
4/28/2023 17:43:06.760,-0.449,-0.539,0.102
4/28/2023 17:43:06.770,-0.5,-0.395,0.121
4/28/2023 17:43:06.780,-0.508,-0.242,0.176
4/28/2023 17:43:06.790,-0.488,-0.27,0.199
4/28/2023 17:43:06.800,-0.488,-0.367,0.203
4/28/2023 17:43:06.810,-0.559,-0.387,0.152
4/28/2023 17:43:06.820,-0.613,-0.324,0.059
4/28/2023 17:43:06.830,-0.551,-0.277,-0.02
4/28/2023 17:43:06.840,-0.781,-0.27,-0.074
4/28/2023 17:43:06.850,-0.879,-0.23,-0.039
4/28/2023 17:43:06.860,-0.996,-0.223,-0.043
4/28/2023 17:43:06.870,-1.078,-0.219,-0.047
4/28/2023 17:43:06.880,-1.203,-0.195,-0.051
4/28/2023 17:43:06.890,-1.391,-0.215,-0.066
4/28/2023 17:43:06.900,-1.625,-0.215,-0.105
4/28/2023 17:43:06.910,-1.91,-0.086,-0.156
4/28/2023 17:43:06.920,-2.152,0.164,-0.195
4/28/2023 17:43:06.930,-2.367,0.477,-0.219
4/28/2023 17:43:06.940,-2.539,0.758,-0.332
4/28/2023 17:43:06.950,-2.672,0.922,-0.383
4/28/2023 17:43:06.960,-2.809,1.047,-0.379
4/28/2023 17:43:06.970,-2.805,1.203,-0.43
4/28/2023 17:43:06.980,-2.609,1.32,-0.539
4/28/2023 17:43:06.990,-2.25,1.5,-0.723
4/28/2023 17:43:07.000,-2.063,1.973,-0.984
4/28/2023 17:43:07.010,-1.891,2.695,-1.242
4/28/2023 17:43:07.020,-1.633,2.656,-1.23
4/28/2023 17:43:07.030,-1.398,2.727,-1.313
4/28/2023 17:43:07.040,-1.414,2.652,-1.281
4/28/2023 17:43:07.050,-1.715,1.984,-0.965
4/28/2023 17:43:07.060,-2.117,-0.336,0.668
4/28/2023 17:43:07.070,-1.789,-2.133,1.152
4/28/2023 17:43:07.080,-1.305,-0.402,-0.063
4/28/2023 17:43:07.090,-2.484,0.652,-0.695
4/28/2023 17:43:07.100,-2.563,0.941,-0.664
4/28/2023 17:43:07.110,-1.59,0.688,-0.297
4/28/2023 17:43:07.120,-0.996,0.211,-0.348
4/28/2023 17:43:07.130,-0.82,0.129,-0.477
4/28/2023 17:43:07.140,-0.84,0.328,-0.5
4/28/2023 17:43:07.150,-0.902,0.25,-0.453
4/28/2023 17:43:07.160,-0.977,0.203,-0.699
4/28/2023 17:43:07.170,-1.336,0.227,-0.43
4/28/2023 17:43:07.180,-1.055,0.105,-0.375
4/28/2023 17:43:07.190,-1.016,-0.047,-0.352
4/28/2023 17:43:07.200,-1.031,-0.008,-0.293
4/28/2023 17:43:07.210,-1.004,-0.172,-0.273
4/28/2023 17:43:07.220,-0.98,-0.133,-0.336
4/28/2023 17:43:07.230,-0.949,-0.137,-0.293
4/28/2023 17:43:07.240,-0.973,-0.102,-0.27
4/28/2023 17:43:07.250,-0.969,-0.09,-0.254
4/28/2023 17:43:07.260,-0.977,-0.082,-0.285
4/28/2023 17:43:07.270,-1.004,-0.023,-0.301
4/28/2023 17:43:07.280,-1.023,0.023,-0.254
4/28/2023 17:43:07.290,-1.039,0.012,-0.191
4/28/2023 17:43:07.300,-1.043,-0.02,-0.148
4/28/2023 17:43:07.310,-1.047,-0.023,-0.145
4/28/2023 17:43:07.320,-1.02,0.016,-0.145
4/28/2023 17:43:07.330,-1.008,-0.117,-0.145
4/28/2023 17:43:07.340,-1.039,-0.082,-0.18
4/28/2023 17:43:07.350,-1.059,-0.051,-0.219
4/28/2023 17:43:07.360,-1.059,-0.063,-0.289
4/28/2023 17:43:07.370,-1.043,-0.051,-0.355
4/28/2023 17:43:07.380,-1.047,-0.129,-0.406
4/28/2023 17:43:07.390,-1.027,-0.129,-0.367
4/28/2023 17:43:07.400,-1.074,-0.137,-0.258
4/28/2023 17:43:07.410,-1.066,-0.145,-0.172
4/28/2023 17:43:07.420,-1.105,-0.172,-0.121
4/28/2023 17:43:07.430,-1.16,-0.234,-0.152
4/28/2023 17:43:07.440,-1.238,-0.258,-0.223
4/28/2023 17:43:07.450,-1.328,-0.238,-0.254
4/28/2023 17:43:07.460,-1.422,-0.223,-0.211
4/28/2023 17:43:07.470,-1.504,-0.207,-0.168
4/28/2023 17:43:07.480,-1.59,-0.25,-0.16
4/28/2023 17:43:07.490,-1.652,-0.313,-0.145
4/28/2023 17:43:07.500,-1.719,-0.426,-0.148
4/28/2023 17:43:07.510,-1.793,-0.543,-0.176
4/28/2023 17:43:07.520,-1.852,-0.648,-0.219
4/28/2023 17:43:07.530,-1.922,-0.824,-0.227
4/28/2023 17:43:07.540,-2.051,-1.063,-0.227
4/28/2023 17:43:07.550,-2.289,-1.258,-0.328
4/28/2023 17:43:07.560,-2.418,-1.414,-0.34
4/28/2023 17:43:07.570,-2.586,-1.348,-0.297
4/28/2023 17:43:07.580,-2.59,-1.559,-0.188
4/28/2023 17:43:07.590,-2.363,-1.379,-0.035
4/28/2023 17:43:07.600,-1.918,-1.477,-0.055
4/28/2023 17:43:07.610,-1.098,-1.637,-0.059
4/28/2023 17:43:07.620,-1.148,-1.184,-0.371
4/28/2023 17:43:07.630,-1.48,-0.066,-0.906
4/28/2023 17:43:07.640,-2.199,0.402,-0.926
4/28/2023 17:43:07.650,-2.09,-0.109,-0.457
4/28/2023 17:43:07.660,-1.426,-0.59,0.035
4/28/2023 17:43:07.670,-0.965,-0.844,0.301
4/28/2023 17:43:07.680,-0.711,-0.754,0.281
4/28/2023 17:43:07.690,-0.543,-0.668,0.227
4/28/2023 17:43:07.700,-0.328,-0.504,0.098
4/28/2023 17:43:07.710,-0.305,-0.414,0.004
4/28/2023 17:43:07.720,-0.453,-0.289,0.004
4/28/2023 17:43:07.730,-0.57,-0.16,0.063
4/28/2023 17:43:07.740,-0.508,-0.07,0.125
4/28/2023 17:43:07.750,-0.457,-0.098,0.16
4/28/2023 17:43:07.760,-0.484,-0.184,0.156
4/28/2023 17:43:07.770,-0.57,-0.277,0.137
4/28/2023 17:43:07.780,-0.652,-0.332,0.113
4/28/2023 17:43:07.790,-0.688,-0.336,0.078
4/28/2023 17:43:07.800,-0.738,-0.32,0.059
4/28/2023 17:43:07.810,-0.867,-0.258,0.039
4/28/2023 17:43:07.820,-1.039,-0.156,0.023
4/28/2023 17:43:07.830,-1.191,-0.172,-0.016
4/28/2023 17:43:07.840,-1.348,-0.238,-0.047
4/28/2023 17:43:07.850,-1.551,-0.219,-0.109
4/28/2023 17:43:07.860,-1.773,-0.086,-0.164
4/28/2023 17:43:07.870,-2.031,0.184,-0.277
4/28/2023 17:43:07.880,-2.289,0.422,-0.402
4/28/2023 17:43:07.890,-2.43,0.543,-0.469
4/28/2023 17:43:07.900,-2.5,0.715,-0.488
4/28/2023 17:43:07.910,-2.641,1.02,-0.473
4/28/2023 17:43:07.920,-2.645,1.348,-0.43
4/28/2023 17:43:07.930,-2.371,1.535,-0.422
4/28/2023 17:43:07.940,-2.301,1.508,-0.727
4/28/2023 17:43:07.950,-2.199,1.695,-1.066
4/28/2023 17:43:07.960,-2.008,2.195,-1.379
4/28/2023 17:43:07.970,-1.691,2.277,-1.355
4/28/2023 17:43:07.980,-1.363,2.434,-1.375
4/28/2023 17:43:07.990,-1.383,2.379,-1.293
4/28/2023 17:43:08.000,-1.617,1.906,-1.113
4/28/2023 17:43:08.010,-1.941,-0.023,-0.027
4/28/2023 17:43:08.020,-2.184,-1.258,0.23
4/28/2023 17:43:08.030,-1.965,0.184,-0.039
4/28/2023 17:43:08.040,-2.602,0.707,-0.309
4/28/2023 17:43:08.050,-2.109,0.363,-0.172
4/28/2023 17:43:08.060,-0.895,0.023,-0.23
4/28/2023 17:43:08.070,-0.453,0.066,-0.465
4/28/2023 17:43:08.080,-0.859,0.238,-0.539
4/28/2023 17:43:08.090,-0.977,0.16,-0.477
4/28/2023 17:43:08.100,-0.898,0.086,-0.586
4/28/2023 17:43:08.110,-1.129,0.215,-0.609
4/28/2023 17:43:08.120,-1.309,0.371,-0.313
4/28/2023 17:43:08.130,-1.184,0.277,-0.234
4/28/2023 17:43:08.140,-1.152,0.051,-0.227
4/28/2023 17:43:08.150,-0.977,-0.094,-0.195
4/28/2023 17:43:08.160,-0.891,-0.094,-0.223
4/28/2023 17:43:08.170,-0.957,-0.02,-0.23
4/28/2023 17:43:08.180,-0.996,-0.02,-0.23
4/28/2023 17:43:08.190,-1.035,-0.012,-0.191
4/28/2023 17:43:08.200,-1.055,-0.023,-0.199
4/28/2023 17:43:08.210,-1.051,-0.055,-0.234
4/28/2023 17:43:08.220,-1.035,-0.066,-0.258
4/28/2023 17:43:08.230,-1.012,-0.07,-0.285
4/28/2023 17:43:08.240,-0.984,-0.102,-0.293
4/28/2023 17:43:08.250,-0.957,-0.121,-0.289
4/28/2023 17:43:08.260,-0.945,-0.141,-0.266
4/28/2023 17:43:08.270,-0.941,-0.145,-0.277
4/28/2023 17:43:08.280,-0.934,-0.219,-0.258
4/28/2023 17:43:08.290,-0.949,-0.227,-0.262
4/28/2023 17:43:08.300,-0.973,-0.164,-0.27
4/28/2023 17:43:08.310,-0.996,-0.098,-0.297
4/28/2023 17:43:08.320,-1.012,-0.023,-0.332
4/28/2023 17:43:08.330,-1,0.027,-0.34
4/28/2023 17:43:08.340,-1.035,0.023,-0.324
4/28/2023 17:43:08.350,-1.055,0.035,-0.305
4/28/2023 17:43:08.360,-1.066,0,-0.254
4/28/2023 17:43:08.370,-1.07,-0.035,-0.223
4/28/2023 17:43:08.380,-1.078,-0.113,-0.223
4/28/2023 17:43:08.390,-1.113,-0.199,-0.223
4/28/2023 17:43:08.400,-1.164,-0.215,-0.188
4/28/2023 17:43:08.410,-1.211,-0.219,-0.211
4/28/2023 17:43:08.420,-1.293,-0.219,-0.227
4/28/2023 17:43:08.430,-1.363,-0.223,-0.238
4/28/2023 17:43:08.440,-1.43,-0.242,-0.227
4/28/2023 17:43:08.450,-1.512,-0.223,-0.152
4/28/2023 17:43:08.460,-1.582,-0.23,-0.105
4/28/2023 17:43:08.470,-1.656,-0.234,-0.082
4/28/2023 17:43:08.480,-1.73,-0.309,-0.125
4/28/2023 17:43:08.490,-1.805,-0.461,-0.195
4/28/2023 17:43:08.500,-1.887,-0.527,-0.273
4/28/2023 17:43:08.510,-1.926,-0.676,-0.25
4/28/2023 17:43:08.520,-2.035,-0.859,-0.102
4/28/2023 17:43:08.530,-2.297,-1.043,0.031
4/28/2023 17:43:08.540,-2.457,-1.203,0.07
4/28/2023 17:43:08.550,-2.5,-1.512,0
4/28/2023 17:43:08.560,-2.508,-1.582,-0.039
4/28/2023 17:43:08.570,-2.441,-1.316,-0.066
4/28/2023 17:43:08.580,-1.895,-1.582,-0.34
4/28/2023 17:43:08.590,-1.246,-1.746,-0.277
4/28/2023 17:43:08.600,-0.953,-0.754,-0.887
4/28/2023 17:43:08.610,-1.547,0.078,-1.188
4/28/2023 17:43:08.620,-2.32,0.168,-1.031
4/28/2023 17:43:08.630,-1.949,-0.188,-0.359
4/28/2023 17:43:08.640,-1.34,-0.738,0.117
4/28/2023 17:43:08.650,-0.855,-1.219,0.25
4/28/2023 17:43:08.660,-0.625,-1.18,0.27
4/28/2023 17:43:08.670,-0.461,-0.891,0.156
4/28/2023 17:43:08.680,-0.391,-0.609,-0.02
4/28/2023 17:43:08.690,-0.469,-0.422,-0.121
4/28/2023 17:43:08.700,-0.52,-0.344,-0.02
4/28/2023 17:43:08.710,-0.461,-0.316,0.094
4/28/2023 17:43:08.720,-0.414,-0.305,0.148
4/28/2023 17:43:08.730,-0.418,-0.336,0.141
4/28/2023 17:43:08.740,-0.508,-0.387,0.07
4/28/2023 17:43:08.750,-0.535,-0.379,0.035
4/28/2023 17:43:08.760,-0.684,-0.297,-0.063
4/28/2023 17:43:08.770,-0.738,-0.215,-0.074
4/28/2023 17:43:08.780,-0.781,-0.23,-0.066
4/28/2023 17:43:08.790,-0.871,-0.25,-0.066
4/28/2023 17:43:08.800,-0.977,-0.242,-0.098
4/28/2023 17:43:08.810,-1.086,-0.23,-0.129
4/28/2023 17:43:08.820,-1.238,-0.285,-0.137
4/28/2023 17:43:08.830,-1.406,-0.238,-0.137
4/28/2023 17:43:08.840,-1.637,-0.082,-0.156
4/28/2023 17:43:08.850,-1.906,0.207,-0.195
4/28/2023 17:43:08.860,-2.148,0.465,-0.211
4/28/2023 17:43:08.870,-2.254,0.645,-0.215
4/28/2023 17:43:08.880,-2.332,0.785,-0.254
4/28/2023 17:43:08.890,-2.426,0.914,-0.23
4/28/2023 17:43:08.900,-2.523,1.074,-0.227
4/28/2023 17:43:08.910,-2.559,1.262,-0.363
4/28/2023 17:43:08.920,-2.395,1.422,-0.605
4/28/2023 17:43:08.930,-2.234,1.586,-0.914
4/28/2023 17:43:08.940,-2.039,2.086,-1.16
4/28/2023 17:43:08.950,-1.781,2.43,-1.313
4/28/2023 17:43:08.960,-1.555,2.352,-1.387
4/28/2023 17:43:08.970,-1.398,2.453,-1.352
4/28/2023 17:43:08.980,-1.402,2.191,-1.281
4/28/2023 17:43:08.990,-1.414,1.66,-1.066
4/28/2023 17:43:09.000,-1.594,0.289,-0.039
4/28/2023 17:43:09.010,-1.695,-2.852,1.434
4/28/2023 17:43:09.020,-1.211,-1.918,0.289
4/28/2023 17:43:09.030,-1.832,0.438,-0.676
4/28/2023 17:43:09.040,-3.652,1.371,-1.215
4/28/2023 17:43:09.050,-2.844,1.367,-0.441
4/28/2023 17:43:09.060,-1.094,0.5,-0.168
4/28/2023 17:43:09.070,-0.551,-0.332,-0.344
4/28/2023 17:43:09.080,-0.602,-0.07,-0.445
4/28/2023 17:43:09.090,-0.52,0.086,-0.973
4/28/2023 17:43:09.100,-1.238,0.297,-0.762
4/28/2023 17:43:09.110,-1.211,0.457,-0.559
4/28/2023 17:43:09.120,-1.129,0.16,-0.395
4/28/2023 17:43:09.130,-1.094,0.145,-0.277
4/28/2023 17:43:09.140,-1.07,0.125,-0.23
4/28/2023 17:43:09.150,-1.063,0.121,-0.242
4/28/2023 17:43:09.160,-1.047,0.141,-0.188
4/28/2023 17:43:09.170,-1.063,0.152,-0.156
4/28/2023 17:43:09.180,-1.078,0.098,-0.129
4/28/2023 17:43:09.190,-1.047,0.012,-0.156
4/28/2023 17:43:09.200,-1.027,0.027,-0.203
4/28/2023 17:43:09.210,-1.012,0.012,-0.234
4/28/2023 17:43:09.220,-0.988,-0.023,-0.273
4/28/2023 17:43:09.230,-0.98,-0.043,-0.309
4/28/2023 17:43:09.240,-0.977,-0.086,-0.328
4/28/2023 17:43:09.250,-0.941,-0.059,-0.332
4/28/2023 17:43:09.260,-0.961,-0.145,-0.336
4/28/2023 17:43:09.270,-0.949,-0.082,-0.355
4/28/2023 17:43:09.280,-0.992,-0.043,-0.371
4/28/2023 17:43:09.290,-0.988,-0.039,-0.359
4/28/2023 17:43:09.300,-1.004,-0.043,-0.352
4/28/2023 17:43:09.310,-1.02,-0.047,-0.352
4/28/2023 17:43:09.320,-1.02,-0.07,-0.363
4/28/2023 17:43:09.330,-1.02,-0.102,-0.277
4/28/2023 17:43:09.340,-1.008,-0.102,-0.219
4/28/2023 17:43:09.350,-1.02,-0.125,-0.168
4/28/2023 17:43:09.360,-1.066,-0.191,-0.152
4/28/2023 17:43:09.370,-1.16,-0.188,-0.191
4/28/2023 17:43:09.380,-1.277,-0.137,-0.262
4/28/2023 17:43:09.390,-1.375,-0.121,-0.324
4/28/2023 17:43:09.400,-1.457,-0.152,-0.313
4/28/2023 17:43:09.410,-1.527,-0.16,-0.223
4/28/2023 17:43:09.420,-1.605,-0.18,-0.129
4/28/2023 17:43:09.430,-1.695,-0.238,-0.063
4/28/2023 17:43:09.440,-1.773,-0.332,-0.07
4/28/2023 17:43:09.450,-1.855,-0.43,-0.117
4/28/2023 17:43:09.460,-1.938,-0.535,-0.113
4/28/2023 17:43:09.470,-2.023,-0.59,-0.102
4/28/2023 17:43:09.480,-2.168,-0.836,-0.043
4/28/2023 17:43:09.490,-2.414,-1.035,0.148
4/28/2023 17:43:09.500,-2.762,-1.262,0.184
4/28/2023 17:43:09.510,-2.676,-1.527,0.063
4/28/2023 17:43:09.520,-2.582,-1.766,-0.148
4/28/2023 17:43:09.530,-2.578,-1.707,-0.207
4/28/2023 17:43:09.540,-2,-1.719,-0.008
4/28/2023 17:43:09.550,-1.219,-1.359,-0.164
4/28/2023 17:43:09.560,-1.254,-0.688,-0.859
4/28/2023 17:43:09.570,-1.527,0.156,-1.32
4/28/2023 17:43:09.580,-2.168,-0.223,-0.637
4/28/2023 17:43:09.590,-1.746,-0.73,-0.32
4/28/2023 17:43:09.600,-1.047,-1.016,0.156
4/28/2023 17:43:09.610,-0.652,-1.258,0.207
4/28/2023 17:43:09.620,-0.547,-1.07,0.242
4/28/2023 17:43:09.630,-0.453,-0.777,0.168
4/28/2023 17:43:09.640,-0.434,-0.52,0.039
4/28/2023 17:43:09.650,-0.48,-0.371,0
4/28/2023 17:43:09.660,-0.617,-0.258,-0.008
4/28/2023 17:43:09.670,-0.602,-0.254,0.086
4/28/2023 17:43:09.680,-0.547,-0.379,0.086
4/28/2023 17:43:09.690,-0.59,-0.383,0.07
4/28/2023 17:43:09.700,-0.703,-0.332,0.016
4/28/2023 17:43:09.710,-0.809,-0.23,-0.027
4/28/2023 17:43:09.720,-0.848,-0.199,-0.031
4/28/2023 17:43:09.730,-0.883,-0.203,-0.012
4/28/2023 17:43:09.740,-0.957,-0.207,0.031
4/28/2023 17:43:09.750,-1.051,-0.23,0.078
4/28/2023 17:43:09.760,-1.16,-0.262,0.086
4/28/2023 17:43:09.770,-1.293,-0.234,0.043
4/28/2023 17:43:09.780,-1.445,-0.172,-0.027
4/28/2023 17:43:09.790,-1.637,-0.047,-0.145
4/28/2023 17:43:09.800,-1.906,0.047,-0.203
4/28/2023 17:43:09.810,-2.117,0.109,-0.215
4/28/2023 17:43:09.820,-2.242,0.293,-0.211
4/28/2023 17:43:09.830,-2.434,0.609,-0.23
4/28/2023 17:43:09.840,-2.668,1.051,-0.375
4/28/2023 17:43:09.850,-2.742,1.414,-0.484
4/28/2023 17:43:09.860,-2.754,1.59,-0.672
4/28/2023 17:43:09.870,-2.516,1.539,-1.035
4/28/2023 17:43:09.880,-2.148,1.629,-1.277
4/28/2023 17:43:09.890,-1.887,2.133,-1.367
4/28/2023 17:43:09.900,-1.645,2.691,-1.355
4/28/2023 17:43:09.910,-1.512,2.492,-1.207
4/28/2023 17:43:09.920,-1.555,2.297,-1.168
4/28/2023 17:43:09.930,-1.707,1.336,-0.48
4/28/2023 17:43:09.940,-2.84,-0.242,0.293
4/28/2023 17:43:09.950,-2.621,0.434,-0.52
4/28/2023 17:43:09.960,-3.313,1.219,-0.691
4/28/2023 17:43:09.970,-3.293,1.664,-0.531
4/28/2023 17:43:09.980,-1.824,0.531,0.059
4/28/2023 17:43:09.990,-0.293,-0.527,-0.207
4/28/2023 17:43:10.000,0.152,-0.066,-0.605
4/28/2023 17:43:10.010,-0.473,0.57,-1.184
4/28/2023 17:43:10.020,-1.438,0.699,-0.621
4/28/2023 17:43:10.030,-1.246,0.492,-0.57
4/28/2023 17:43:10.040,-1.207,0.203,-0.332
4/28/2023 17:43:10.050,-1.105,0.211,-0.191
4/28/2023 17:43:10.060,-1.063,0.059,-0.195
4/28/2023 17:43:10.070,-0.98,-0.008,-0.188
4/28/2023 17:43:10.080,-0.988,0,-0.223
4/28/2023 17:43:10.090,-1.012,-0.141,-0.199
4/28/2023 17:43:10.100,-1.016,-0.168,-0.203
4/28/2023 17:43:10.110,-1.012,-0.145,-0.25
4/28/2023 17:43:10.120,-0.984,-0.094,-0.332
4/28/2023 17:43:10.130,-0.973,-0.07,-0.359
4/28/2023 17:43:10.140,-0.996,-0.027,-0.316
4/28/2023 17:43:10.150,-1.027,0.027,-0.25
4/28/2023 17:43:10.160,-1.039,0.023,-0.223
4/28/2023 17:43:10.170,-1.043,-0.016,-0.188
4/28/2023 17:43:10.180,-1.023,-0.074,-0.18
4/28/2023 17:43:10.190,-1.02,-0.063,-0.203
4/28/2023 17:43:10.200,-1.012,0.012,-0.191
4/28/2023 17:43:10.210,-1.102,-0.074,-0.219
4/28/2023 17:43:10.220,-1.137,-0.039,-0.27
4/28/2023 17:43:10.230,-1.156,-0.016,-0.285
4/28/2023 17:43:10.240,-1.188,-0.055,-0.309
4/28/2023 17:43:10.250,-1.145,-0.027,-0.293
4/28/2023 17:43:10.260,-1.164,-0.004,-0.23
4/28/2023 17:43:10.270,-1.164,-0.043,-0.172
4/28/2023 17:43:10.280,-1.176,-0.059,-0.152
4/28/2023 17:43:10.290,-1.188,-0.102,-0.16
4/28/2023 17:43:10.300,-1.207,-0.133,-0.188
4/28/2023 17:43:10.310,-1.258,-0.16,-0.203
4/28/2023 17:43:10.320,-1.293,-0.211,-0.184
4/28/2023 17:43:10.330,-1.313,-0.27,-0.137
4/28/2023 17:43:10.340,-1.379,-0.332,-0.105
4/28/2023 17:43:10.350,-1.461,-0.367,-0.094
4/28/2023 17:43:10.360,-1.547,-0.375,-0.09
4/28/2023 17:43:10.370,-1.621,-0.441,-0.078
4/28/2023 17:43:10.380,-1.684,-0.586,-0.07
4/28/2023 17:43:10.390,-1.715,-0.512,-0.074
4/28/2023 17:43:10.400,-1.742,-0.914,-0.18
4/28/2023 17:43:10.410,-1.785,-0.996,-0.207
4/28/2023 17:43:10.420,-2.02,-1.066,-0.145
4/28/2023 17:43:10.430,-2.25,-1.125,-0.105
4/28/2023 17:43:10.440,-2.379,-1.184,-0.074
4/28/2023 17:43:10.450,-2.418,-1.551,-0.141
4/28/2023 17:43:10.460,-2.266,-1.305,-0.227
4/28/2023 17:43:10.470,-1.719,-1.328,-0.293
4/28/2023 17:43:10.480,-1.43,-1.746,-0.398
4/28/2023 17:43:10.490,-1.34,-1.25,-0.746
4/28/2023 17:43:10.500,-1.395,0.117,-1.109
4/28/2023 17:43:10.510,-2.188,0.711,-1.379
4/28/2023 17:43:10.520,-2.125,0.156,-0.637
4/28/2023 17:43:10.530,-1.414,-0.613,-0.051
4/28/2023 17:43:10.540,-0.914,-0.945,0.219
4/28/2023 17:43:10.550,-0.715,-0.789,0.262
4/28/2023 17:43:10.560,-0.555,-0.574,0.168
4/28/2023 17:43:10.570,-0.477,-0.449,0.074
4/28/2023 17:43:10.580,-0.52,-0.512,0.074
4/28/2023 17:43:10.590,-0.578,-0.438,0.152
4/28/2023 17:43:10.600,-0.574,-0.262,0.266
4/28/2023 17:43:10.610,-0.563,-0.145,0.309
4/28/2023 17:43:10.620,-0.578,-0.227,0.316
4/28/2023 17:43:10.630,-0.574,-0.309,0.277
4/28/2023 17:43:10.640,-0.543,-0.297,0.227
4/28/2023 17:43:10.650,-0.57,-0.336,0.18
4/28/2023 17:43:10.660,-0.836,-0.285,0.086
4/28/2023 17:43:10.670,-0.852,-0.246,0.066
4/28/2023 17:43:10.680,-0.871,-0.254,0.027
4/28/2023 17:43:10.690,-0.953,-0.273,-0.016
4/28/2023 17:43:10.700,-1.074,-0.27,-0.055
4/28/2023 17:43:10.710,-1.234,-0.266,-0.07
4/28/2023 17:43:10.720,-1.449,-0.285,-0.102
4/28/2023 17:43:10.730,-1.707,-0.262,-0.191
4/28/2023 17:43:10.740,-1.953,-0.125,-0.324
4/28/2023 17:43:10.750,-2.297,0.188,-0.43
4/28/2023 17:43:10.760,-2.602,0.637,-0.543
4/28/2023 17:43:10.770,-2.684,0.98,-0.617
4/28/2023 17:43:10.780,-2.695,1.105,-0.637
4/28/2023 17:43:10.790,-2.801,1.313,-0.695
4/28/2023 17:43:10.800,-2.758,1.574,-0.734
4/28/2023 17:43:10.810,-2.426,1.738,-0.781
4/28/2023 17:43:10.820,-2.227,2.016,-0.996
4/28/2023 17:43:10.830,-2.086,2.633,-1.32
4/28/2023 17:43:10.840,-1.676,2.859,-1.469
4/28/2023 17:43:10.850,-1.344,2.824,-1.375
4/28/2023 17:43:10.860,-1.352,2.867,-1.266
4/28/2023 17:43:10.870,-1.637,2.391,-1.035
4/28/2023 17:43:10.880,-2.141,0.051,0.297
4/28/2023 17:43:10.890,-1.824,-3.305,1.766
4/28/2023 17:43:10.900,-1.082,-1.156,0.973
4/28/2023 17:43:10.910,-2.148,0.551,-0.297
4/28/2023 17:43:10.920,-3.305,0.945,-0.891
4/28/2023 17:43:10.930,-2.238,1.063,-0.336
4/28/2023 17:43:10.940,-1.121,0.258,-0.301
4/28/2023 17:43:10.950,-0.832,-0.137,-0.461
4/28/2023 17:43:10.960,-0.594,0.121,-0.496
4/28/2023 17:43:10.970,-0.641,0.313,-1.059
4/28/2023 17:43:10.980,-1.258,0.445,-0.57
4/28/2023 17:43:10.990,-1.117,0.477,-0.566
4/28/2023 17:43:11.000,-1.145,0.152,-0.449
4/28/2023 17:43:11.010,-1.051,0.129,-0.332
4/28/2023 17:43:11.020,-1.035,0.098,-0.203
4/28/2023 17:43:11.030,-1.047,0.059,-0.172
4/28/2023 17:43:11.040,-1.047,0.035,-0.18
4/28/2023 17:43:11.050,-1.031,-0.051,-0.184
4/28/2023 17:43:11.060,-1.02,-0.082,-0.195
4/28/2023 17:43:11.070,-1.02,-0.121,-0.211
4/28/2023 17:43:11.080,-1.027,-0.121,-0.238
4/28/2023 17:43:11.090,-1.02,-0.098,-0.281
4/28/2023 17:43:11.100,-0.969,-0.074,-0.352
4/28/2023 17:43:11.110,-0.945,-0.066,-0.395
4/28/2023 17:43:11.120,-0.926,-0.113,-0.383
4/28/2023 17:43:11.130,-0.926,-0.137,-0.344
4/28/2023 17:43:11.140,-0.941,-0.082,-0.293
4/28/2023 17:43:11.150,-0.973,-0.082,-0.215
4/28/2023 17:43:11.160,-0.984,-0.102,-0.199
4/28/2023 17:43:11.170,-0.996,-0.066,-0.219
4/28/2023 17:43:11.180,-1.027,-0.012,-0.273
4/28/2023 17:43:11.190,-1.031,-0.023,-0.313
4/28/2023 17:43:11.200,-1.035,-0.051,-0.359
4/28/2023 17:43:11.210,-1.043,-0.109,-0.375
4/28/2023 17:43:11.220,-1.031,-0.129,-0.363
4/28/2023 17:43:11.230,-1.035,-0.133,-0.289
4/28/2023 17:43:11.240,-1.117,-0.176,-0.207
4/28/2023 17:43:11.250,-1.172,-0.191,-0.188
4/28/2023 17:43:11.260,-1.227,-0.23,-0.18
4/28/2023 17:43:11.270,-1.332,-0.199,-0.148
4/28/2023 17:43:11.280,-1.406,-0.156,-0.117
4/28/2023 17:43:11.290,-1.508,-0.211,-0.117
4/28/2023 17:43:11.300,-1.625,-0.223,-0.125
4/28/2023 17:43:11.310,-1.699,-0.262,-0.145
4/28/2023 17:43:11.320,-1.73,-0.328,-0.16
4/28/2023 17:43:11.330,-1.781,-0.387,-0.188
4/28/2023 17:43:11.340,-1.867,-0.477,-0.223
4/28/2023 17:43:11.350,-1.922,-0.691,-0.203
4/28/2023 17:43:11.360,-1.992,-0.785,-0.137
4/28/2023 17:43:11.370,-2.215,-1.207,-0.113
4/28/2023 17:43:11.380,-2.383,-1.367,-0.109
4/28/2023 17:43:11.390,-2.449,-1.277,-0.223
4/28/2023 17:43:11.400,-2.586,-1.57,-0.305
4/28/2023 17:43:11.410,-2.438,-1.719,-0.309
4/28/2023 17:43:11.420,-2.156,-1.551,-0.402
4/28/2023 17:43:11.430,-1.441,-1.668,-0.191
4/28/2023 17:43:11.440,-1.238,-1.668,-0.254
4/28/2023 17:43:11.450,-1.219,-0.762,-0.719
4/28/2023 17:43:11.460,-1.582,0.082,-0.926
4/28/2023 17:43:11.470,-2,-0.246,-0.539
4/28/2023 17:43:11.480,-1.488,-0.785,-0.125
4/28/2023 17:43:11.490,-0.848,-1.129,0.285
4/28/2023 17:43:11.500,-0.523,-1.277,0.43
4/28/2023 17:43:11.510,-0.426,-1.008,0.426
4/28/2023 17:43:11.520,-0.371,-0.609,0.215
4/28/2023 17:43:11.530,-0.438,-0.41,0.004
4/28/2023 17:43:11.540,-0.602,-0.363,-0.063
4/28/2023 17:43:11.550,-0.695,-0.383,-0.004
4/28/2023 17:43:11.560,-0.699,-0.355,0.059
4/28/2023 17:43:11.570,-0.641,-0.336,0.09
4/28/2023 17:43:11.580,-0.641,-0.34,0.051
4/28/2023 17:43:11.590,-0.738,-0.324,-0.023
4/28/2023 17:43:11.600,-0.844,-0.254,-0.086
4/28/2023 17:43:11.610,-0.895,-0.191,-0.125
4/28/2023 17:43:11.620,-0.922,-0.164,-0.113
4/28/2023 17:43:11.630,-0.992,-0.18,-0.082
4/28/2023 17:43:11.640,-1.105,-0.211,-0.07
4/28/2023 17:43:11.650,-1.238,-0.242,-0.074
4/28/2023 17:43:11.660,-1.395,-0.246,-0.117
4/28/2023 17:43:11.670,-1.617,-0.172,-0.219
4/28/2023 17:43:11.680,-1.926,0.02,-0.348
4/28/2023 17:43:11.690,-2.164,0.164,-0.359
4/28/2023 17:43:11.700,-2.332,0.336,-0.336
4/28/2023 17:43:11.710,-2.453,0.586,-0.398
4/28/2023 17:43:11.720,-2.609,0.945,-0.512
4/28/2023 17:43:11.730,-2.672,1.281,-0.484
4/28/2023 17:43:11.740,-2.547,1.496,-0.453
4/28/2023 17:43:11.750,-2.422,1.574,-0.598
4/28/2023 17:43:11.760,-2.273,1.816,-0.84
4/28/2023 17:43:11.770,-2.074,2.379,-1.031
4/28/2023 17:43:11.780,-1.734,2.469,-1
4/28/2023 17:43:11.790,-1.473,2.379,-0.977
4/28/2023 17:43:11.800,-1.395,2.621,-0.961
4/28/2023 17:43:11.810,-1.633,2.207,-0.895
4/28/2023 17:43:11.820,-1.719,0.492,-0.348
4/28/2023 17:43:11.830,-2.258,-2.129,0.934
4/28/2023 17:43:11.840,-1.531,-0.184,0.098
4/28/2023 17:43:11.850,-2.488,0.805,-0.551
4/28/2023 17:43:11.860,-3.191,1.059,-0.926
4/28/2023 17:43:11.870,-1.973,1.008,-0.285
4/28/2023 17:43:11.880,-1.023,0.145,-0.227
4/28/2023 17:43:11.890,-0.723,-0.262,-0.445
4/28/2023 17:43:11.900,-0.574,0.184,-0.504
4/28/2023 17:43:11.910,-0.652,0.383,-0.914
4/28/2023 17:43:11.920,-1.27,0.344,-0.543
4/28/2023 17:43:11.930,-1.16,0.301,-0.492
4/28/2023 17:43:11.940,-1.113,0.082,-0.391
4/28/2023 17:43:11.950,-1.059,0.082,-0.305
4/28/2023 17:43:11.960,-1.027,0.066,-0.258
4/28/2023 17:43:11.970,-1.035,0.063,-0.223
4/28/2023 17:43:11.980,-1.059,0.063,-0.203
4/28/2023 17:43:11.990,-1.055,0.008,-0.195
4/28/2023 17:43:12.000,-1.055,-0.043,-0.203
4/28/2023 17:43:12.010,-1.039,-0.109,-0.215
4/28/2023 17:43:12.020,-1.02,-0.129,-0.238
4/28/2023 17:43:12.030,-1,-0.113,-0.289
4/28/2023 17:43:12.040,-0.953,-0.152,-0.352
4/28/2023 17:43:12.050,-0.93,-0.176,-0.398
4/28/2023 17:43:12.060,-0.91,-0.137,-0.406
4/28/2023 17:43:12.070,-0.926,-0.152,-0.371
4/28/2023 17:43:12.080,-0.941,-0.145,-0.324
4/28/2023 17:43:12.090,-0.961,-0.09,-0.266
4/28/2023 17:43:12.100,-0.957,-0.027,-0.242
4/28/2023 17:43:12.110,-0.977,0.023,-0.238
4/28/2023 17:43:12.120,-0.984,0.039,-0.219
4/28/2023 17:43:12.130,-1.004,0.008,-0.211
4/28/2023 17:43:12.140,-1.043,-0.051,-0.238
4/28/2023 17:43:12.150,-1.035,-0.117,-0.293
4/28/2023 17:43:12.160,-1.02,-0.129,-0.309
4/28/2023 17:43:12.170,-1.055,-0.137,-0.297
4/28/2023 17:43:12.180,-1.16,-0.172,-0.293
4/28/2023 17:43:12.190,-1.266,-0.152,-0.25
4/28/2023 17:43:12.200,-1.379,-0.125,-0.215
4/28/2023 17:43:12.210,-1.398,-0.18,-0.18
4/28/2023 17:43:12.220,-1.41,-0.273,-0.152
4/28/2023 17:43:12.230,-1.504,-0.266,-0.125
4/28/2023 17:43:12.240,-1.633,-0.277,-0.133
4/28/2023 17:43:12.250,-1.742,-0.336,-0.141
4/28/2023 17:43:12.260,-1.832,-0.379,-0.129
4/28/2023 17:43:12.270,-1.902,-0.5,-0.09
4/28/2023 17:43:12.280,-1.961,-0.563,-0.078
4/28/2023 17:43:12.290,-2.07,-0.793,-0.137
4/28/2023 17:43:12.300,-2.254,-1.086,-0.063
4/28/2023 17:43:12.310,-2.605,-1.289,0.008
4/28/2023 17:43:12.320,-2.738,-1.434,0
4/28/2023 17:43:12.330,-2.625,-1.676,-0.191
4/28/2023 17:43:12.340,-2.465,-1.684,-0.281
4/28/2023 17:43:12.350,-2.379,-1.621,-0.277
4/28/2023 17:43:12.360,-1.789,-1.871,-0.141
4/28/2023 17:43:12.370,-1.145,-1.586,-0.262
4/28/2023 17:43:12.380,-0.84,-0.523,-0.898
4/28/2023 17:43:12.390,-1.574,0.086,-0.973
4/28/2023 17:43:12.400,-2.23,-0.281,-0.715
4/28/2023 17:43:12.410,-1.547,-0.746,-0.195
4/28/2023 17:43:12.420,-0.926,-1.027,0.148
4/28/2023 17:43:12.430,-0.598,-1.152,0.305
4/28/2023 17:43:12.440,-0.469,-0.926,0.313
4/28/2023 17:43:12.450,-0.391,-0.637,0.176
4/28/2023 17:43:12.460,-0.383,-0.484,0.039
4/28/2023 17:43:12.470,-0.453,-0.406,0.02
4/28/2023 17:43:12.480,-0.512,-0.266,0.047
4/28/2023 17:43:12.490,-0.508,-0.148,0.105
4/28/2023 17:43:12.500,-0.539,-0.145,0.137
4/28/2023 17:43:12.510,-0.57,-0.313,0.121
4/28/2023 17:43:12.520,-0.59,-0.418,0.07
4/28/2023 17:43:12.530,-0.652,-0.359,0.035
4/28/2023 17:43:12.540,-0.813,-0.262,-0.031
4/28/2023 17:43:12.550,-0.809,-0.203,0
4/28/2023 17:43:12.560,-1.043,-0.234,-0.047
4/28/2023 17:43:12.570,-1.156,-0.238,-0.039
4/28/2023 17:43:12.580,-1.305,-0.25,-0.055
4/28/2023 17:43:12.590,-1.488,-0.277,-0.078
4/28/2023 17:43:12.600,-1.707,-0.203,-0.145
4/28/2023 17:43:12.610,-1.922,-0.016,-0.234
4/28/2023 17:43:12.620,-2.176,0.18,-0.289
4/28/2023 17:43:12.630,-2.379,0.379,-0.363
4/28/2023 17:43:12.640,-2.461,0.598,-0.445
4/28/2023 17:43:12.650,-2.621,0.781,-0.5
4/28/2023 17:43:12.660,-2.824,0.969,-0.613
4/28/2023 17:43:12.670,-2.676,1.223,-0.742
4/28/2023 17:43:12.680,-2.508,1.461,-0.98
4/28/2023 17:43:12.690,-2.273,1.863,-1.164
4/28/2023 17:43:12.700,-1.992,2.266,-1.254
4/28/2023 17:43:12.710,-1.727,2.746,-1.266
4/28/2023 17:43:12.720,-1.547,2.645,-1.219
4/28/2023 17:43:12.730,-1.387,2.449,-1.262
4/28/2023 17:43:12.740,-1.383,2.316,-1.188
4/28/2023 17:43:12.750,-1.664,1.277,-0.602
4/28/2023 17:43:12.760,-2.273,-2.203,1.297
4/28/2023 17:43:12.770,-1.52,-1.824,1.023
4/28/2023 17:43:12.780,-1.75,0.492,0
4/28/2023 17:43:12.790,-3.246,0.992,-0.809
4/28/2023 17:43:12.800,-2.754,0.891,-0.543
4/28/2023 17:43:12.810,-1.461,0.57,-0.375
4/28/2023 17:43:12.820,-0.875,-0.109,-0.496
4/28/2023 17:43:12.830,-0.711,-0.238,-0.531
4/28/2023 17:43:12.840,-0.547,0.113,-0.68
4/28/2023 17:43:12.850,-0.867,0.414,-0.84
4/28/2023 17:43:12.860,-1.344,0.531,-0.523
4/28/2023 17:43:12.870,-1.121,0.285,-0.473
4/28/2023 17:43:12.880,-1.098,0.09,-0.313
4/28/2023 17:43:12.890,-0.969,0.004,-0.266
4/28/2023 17:43:12.900,-0.988,-0.012,-0.246
4/28/2023 17:43:12.910,-1.023,0.02,-0.195
4/28/2023 17:43:12.920,-1.027,-0.031,-0.152
4/28/2023 17:43:12.930,-1.035,-0.047,-0.172
4/28/2023 17:43:12.940,-1.016,-0.031,-0.164
4/28/2023 17:43:12.950,-0.996,-0.047,-0.184
4/28/2023 17:43:12.960,-1.012,-0.008,-0.199
4/28/2023 17:43:12.970,-1.031,0.043,-0.234
4/28/2023 17:43:12.980,-1.016,0.094,-0.242
4/28/2023 17:43:12.990,-1.004,-0.066,-0.215
4/28/2023 17:43:13.000,-1.031,-0.121,-0.203
4/28/2023 17:43:13.010,-1.016,-0.125,-0.168
4/28/2023 17:43:13.020,-1.012,-0.148,-0.156
4/28/2023 17:43:13.030,-1.012,-0.109,-0.168
4/28/2023 17:43:13.040,-1,-0.047,-0.188
4/28/2023 17:43:13.050,-1.012,-0.039,-0.227
4/28/2023 17:43:13.060,-1.012,-0.031,-0.281
4/28/2023 17:43:13.070,-1.008,-0.035,-0.34
4/28/2023 17:43:13.080,-1.02,-0.082,-0.363
4/28/2023 17:43:13.090,-1.02,-0.121,-0.371
4/28/2023 17:43:13.100,-1.016,-0.117,-0.348
4/28/2023 17:43:13.110,-1.031,-0.129,-0.285
4/28/2023 17:43:13.120,-1.129,-0.191,-0.211
4/28/2023 17:43:13.130,-1.219,-0.176,-0.18
4/28/2023 17:43:13.140,-1.316,-0.176,-0.156
4/28/2023 17:43:13.150,-1.383,-0.176,-0.102
4/28/2023 17:43:13.160,-1.434,-0.219,-0.051
4/28/2023 17:43:13.170,-1.531,-0.246,-0.055
4/28/2023 17:43:13.180,-1.625,-0.254,-0.055
4/28/2023 17:43:13.190,-1.695,-0.281,-0.063
4/28/2023 17:43:13.200,-1.781,-0.336,-0.094
4/28/2023 17:43:13.210,-1.867,-0.422,-0.148
4/28/2023 17:43:13.220,-1.895,-0.578,-0.254
4/28/2023 17:43:13.230,-1.91,-0.742,-0.32
4/28/2023 17:43:13.240,-1.965,-0.914,-0.328
4/28/2023 17:43:13.250,-2.152,-1.09,-0.203
4/28/2023 17:43:13.260,-2.453,-1.191,-0.09
4/28/2023 17:43:13.270,-2.551,-1.328,-0.148
4/28/2023 17:43:13.280,-2.328,-1.563,-0.242
4/28/2023 17:43:13.290,-2.188,-1.426,-0.172
4/28/2023 17:43:13.300,-2.098,-1.625,-0.18
4/28/2023 17:43:13.310,-1.523,-2.008,0.008
4/28/2023 17:43:13.320,-1.09,-1.609,-0.184
4/28/2023 17:43:13.330,-1.09,-0.563,-0.816
4/28/2023 17:43:13.340,-1.625,0.207,-1.07
4/28/2023 17:43:13.350,-1.934,-0.125,-0.551
4/28/2023 17:43:13.360,-1.371,-0.77,-0.16
4/28/2023 17:43:13.370,-0.855,-1.188,0.16
4/28/2023 17:43:13.380,-0.551,-1.078,0.305
4/28/2023 17:43:13.390,-0.453,-0.738,0.289
4/28/2023 17:43:13.400,-0.41,-0.469,0.117
4/28/2023 17:43:13.410,-0.449,-0.34,-0.055
4/28/2023 17:43:13.420,-0.563,-0.277,-0.094
4/28/2023 17:43:13.430,-0.672,-0.191,-0.07
4/28/2023 17:43:13.440,-0.699,-0.129,-0.016
4/28/2023 17:43:13.450,-0.602,-0.145,0.055
4/28/2023 17:43:13.460,-0.609,-0.293,0.035
4/28/2023 17:43:13.470,-0.684,-0.367,0.031
4/28/2023 17:43:13.480,-0.766,-0.313,-0.039
4/28/2023 17:43:13.490,-0.852,-0.215,-0.098
4/28/2023 17:43:13.500,-0.945,-0.156,-0.113
4/28/2023 17:43:13.510,-1.027,-0.18,-0.09
4/28/2023 17:43:13.520,-1.137,-0.23,-0.078
4/28/2023 17:43:13.530,-1.277,-0.281,-0.09
4/28/2023 17:43:13.540,-1.434,-0.301,-0.129
4/28/2023 17:43:13.550,-1.617,-0.211,-0.168
4/28/2023 17:43:13.560,-1.848,-0.074,-0.262
4/28/2023 17:43:13.570,-2.051,0.074,-0.313
4/28/2023 17:43:13.580,-2.238,0.219,-0.316
4/28/2023 17:43:13.590,-2.402,0.348,-0.324
4/28/2023 17:43:13.600,-2.578,0.523,-0.352
4/28/2023 17:43:13.610,-2.754,0.832,-0.387
4/28/2023 17:43:13.620,-2.82,1.035,-0.457
4/28/2023 17:43:13.630,-2.672,1.375,-0.688
4/28/2023 17:43:13.640,-2.32,1.648,-0.941
4/28/2023 17:43:13.650,-2.09,2.066,-1.199
4/28/2023 17:43:13.660,-1.84,2.852,-1.391
4/28/2023 17:43:13.670,-1.578,2.813,-1.301
4/28/2023 17:43:13.680,-1.375,2.887,-1.324
4/28/2023 17:43:13.690,-1.402,2.75,-1.359
4/28/2023 17:43:13.700,-1.539,2.09,-1.133
4/28/2023 17:43:13.710,-1.918,-0.203,0.137
4/28/2023 17:43:13.720,-2.059,-3.121,1.621
4/28/2023 17:43:13.730,-1.309,-0.797,0.91
4/28/2023 17:43:13.740,-2.258,0.637,-0.328
4/28/2023 17:43:13.750,-3.273,0.816,-0.836
4/28/2023 17:43:13.760,-2.078,0.754,-0.363
4/28/2023 17:43:13.770,-1.176,0.262,-0.313
4/28/2023 17:43:13.780,-0.922,-0.063,-0.496
4/28/2023 17:43:13.790,-0.715,-0.016,-0.824
4/28/2023 17:43:13.800,-0.813,0.348,-0.832
4/28/2023 17:43:13.810,-1.059,0.504,-0.496
4/28/2023 17:43:13.820,-0.996,0.359,-0.496
4/28/2023 17:43:13.830,-1.137,0.262,-0.406
4/28/2023 17:43:13.840,-1.105,0.066,-0.289
4/28/2023 17:43:13.850,-0.996,-0.043,-0.273
4/28/2023 17:43:13.860,-1.02,0.02,-0.203
4/28/2023 17:43:13.870,-1.035,0.016,-0.148
4/28/2023 17:43:13.880,-1.027,-0.063,-0.164
4/28/2023 17:43:13.890,-1.02,-0.074,-0.156
4/28/2023 17:43:13.900,-1.016,-0.113,-0.164
4/28/2023 17:43:13.910,-1.02,-0.129,-0.207
4/28/2023 17:43:13.920,-1.016,-0.109,-0.262
4/28/2023 17:43:13.930,-0.977,-0.07,-0.328
4/28/2023 17:43:13.940,-0.973,-0.008,-0.355
4/28/2023 17:43:13.950,-0.973,-0.141,-0.313
4/28/2023 17:43:13.960,-1.004,-0.191,-0.273
4/28/2023 17:43:13.970,-0.98,-0.129,-0.219
4/28/2023 17:43:13.980,-0.988,-0.121,-0.156
4/28/2023 17:43:13.990,-1.004,-0.18,-0.156
4/28/2023 17:43:14.000,-1.02,-0.121,-0.211
4/28/2023 17:43:14.010,-1.035,-0.055,-0.27
4/28/2023 17:43:14.020,-1.043,-0.098,-0.359
4/28/2023 17:43:14.030,-1.039,-0.105,-0.383
4/28/2023 17:43:14.040,-1.047,-0.086,-0.363
4/28/2023 17:43:14.050,-1.07,-0.145,-0.316
4/28/2023 17:43:14.060,-1.125,-0.184,-0.246
4/28/2023 17:43:14.070,-1.176,-0.207,-0.184
4/28/2023 17:43:14.080,-1.285,-0.191,-0.125
4/28/2023 17:43:14.090,-1.359,-0.152,-0.105
4/28/2023 17:43:14.100,-1.379,-0.188,-0.117
4/28/2023 17:43:14.110,-1.379,-0.211,-0.078
4/28/2023 17:43:14.120,-1.414,-0.223,-0.043
4/28/2023 17:43:14.130,-1.484,-0.262,-0.066
4/28/2023 17:43:14.140,-1.59,-0.285,-0.105
4/28/2023 17:43:14.150,-1.68,-0.402,-0.168
4/28/2023 17:43:14.160,-1.781,-0.285,-0.176
4/28/2023 17:43:14.170,-1.863,-0.59,-0.246
4/28/2023 17:43:14.180,-1.879,-0.746,-0.285
4/28/2023 17:43:14.190,-1.926,-0.898,-0.293
4/28/2023 17:43:14.200,-2.055,-1.129,-0.199
4/28/2023 17:43:14.210,-2.375,-1.219,-0.086
4/28/2023 17:43:14.220,-2.539,-1.309,-0.059
4/28/2023 17:43:14.230,-2.48,-1.605,-0.148
4/28/2023 17:43:14.240,-2.336,-1.434,-0.156
4/28/2023 17:43:14.250,-2.195,-1.449,-0.227
4/28/2023 17:43:14.260,-1.613,-2.027,-0.016
4/28/2023 17:43:14.270,-1.125,-1.969,0
4/28/2023 17:43:14.280,-1.055,-0.879,-0.563
4/28/2023 17:43:14.290,-1.109,0.656,-1.203
4/28/2023 17:43:14.300,-2.328,0.656,-1.059
4/28/2023 17:43:14.310,-2.223,-0.328,-0.535
4/28/2023 17:43:14.320,-1.254,-0.969,0.035
4/28/2023 17:43:14.330,-0.641,-1.215,0.316
4/28/2023 17:43:14.340,-0.422,-1,0.32
4/28/2023 17:43:14.350,-0.363,-0.508,0.121
4/28/2023 17:43:14.360,-0.309,-0.293,-0.102
4/28/2023 17:43:14.370,-0.34,-0.32,-0.109
4/28/2023 17:43:14.380,-0.504,-0.266,-0.105
4/28/2023 17:43:14.390,-0.52,-0.129,-0.043
4/28/2023 17:43:14.400,-0.422,-0.18,0.035
4/28/2023 17:43:14.410,-0.379,-0.313,0.043
4/28/2023 17:43:14.420,-0.492,-0.371,0.016
4/28/2023 17:43:14.430,-0.625,-0.352,-0.023
4/28/2023 17:43:14.440,-0.688,-0.313,-0.078
4/28/2023 17:43:14.450,-0.723,-0.285,-0.105
4/28/2023 17:43:14.460,-0.816,-0.242,-0.113
4/28/2023 17:43:14.470,-0.941,-0.223,-0.105
4/28/2023 17:43:14.480,-1.066,-0.254,-0.125
4/28/2023 17:43:14.490,-1.215,-0.266,-0.164
4/28/2023 17:43:14.500,-1.422,-0.203,-0.242
4/28/2023 17:43:14.510,-1.695,-0.113,-0.324
4/28/2023 17:43:14.520,-1.973,-0.012,-0.363
4/28/2023 17:43:14.530,-2.211,0.105,-0.332
4/28/2023 17:43:14.540,-2.371,0.297,-0.297
4/28/2023 17:43:14.550,-2.477,0.516,-0.332
4/28/2023 17:43:14.560,-2.629,0.938,-0.492
4/28/2023 17:43:14.570,-2.691,1.406,-0.574
4/28/2023 17:43:14.580,-2.691,1.762,-0.609
4/28/2023 17:43:14.590,-2.332,1.801,-0.664
4/28/2023 17:43:14.600,-2.012,1.762,-0.891
4/28/2023 17:43:14.610,-1.883,2.152,-1.145
4/28/2023 17:43:14.620,-1.844,2.254,-1.215
4/28/2023 17:43:14.630,-1.566,2.313,-1.273
4/28/2023 17:43:14.640,-1.605,2.258,-0.785
4/28/2023 17:43:14.650,-2.422,1.543,-0.129
4/28/2023 17:43:14.660,-2.914,0.32,-0.266
4/28/2023 17:43:14.670,-2.762,0.523,-0.523
4/28/2023 17:43:14.680,-2.875,1.023,-0.457
4/28/2023 17:43:14.690,-2.336,0.84,0.047
4/28/2023 17:43:14.700,-1.141,0.027,-0.023
4/28/2023 17:43:14.710,-0.246,-0.328,-0.48
4/28/2023 17:43:14.720,-0.184,-0.016,-0.906
4/28/2023 17:43:14.730,-0.758,0.379,-0.953
4/28/2023 17:43:14.740,-1.41,0.68,-0.461
4/28/2023 17:43:14.750,-1.25,0.359,-0.441
4/28/2023 17:43:14.760,-1.145,0.121,-0.305
4/28/2023 17:43:14.770,-1.047,0.145,-0.223
4/28/2023 17:43:14.780,-1,0.008,-0.27
4/28/2023 17:43:14.790,-0.957,-0.082,-0.25
4/28/2023 17:43:14.800,-0.969,-0.113,-0.223
4/28/2023 17:43:14.810,-1.012,-0.164,-0.223
4/28/2023 17:43:14.820,-1.008,-0.156,-0.234
4/28/2023 17:43:14.830,-1.02,-0.109,-0.273
4/28/2023 17:43:14.840,-1.027,-0.078,-0.301
4/28/2023 17:43:14.850,-1.016,-0.074,-0.316
4/28/2023 17:43:14.860,-0.992,-0.051,-0.328
4/28/2023 17:43:14.870,-0.992,-0.031,-0.305
4/28/2023 17:43:14.880,-1,-0.004,-0.262
4/28/2023 17:43:14.890,-0.984,-0.02,-0.211
4/28/2023 17:43:14.900,-0.977,0.004,-0.176
4/28/2023 17:43:14.910,-1,-0.129,-0.16
4/28/2023 17:43:14.920,-1.016,-0.137,-0.168
4/28/2023 17:43:14.930,-1.023,-0.07,-0.219
4/28/2023 17:43:14.940,-1.027,-0.012,-0.293
4/28/2023 17:43:14.950,-1.047,0.035,-0.305
4/28/2023 17:43:14.960,-1.051,0.047,-0.328
4/28/2023 17:43:14.970,-1.059,-0.008,-0.355
4/28/2023 17:43:14.980,-1.07,-0.023,-0.336
4/28/2023 17:43:14.990,-1.082,-0.051,-0.289
4/28/2023 17:43:15.000,-1.098,-0.055,-0.246
4/28/2023 17:43:15.010,-1.121,-0.09,-0.215
4/28/2023 17:43:15.020,-1.184,-0.125,-0.191
4/28/2023 17:43:15.030,-1.223,-0.156,-0.211
4/28/2023 17:43:15.040,-1.23,-0.227,-0.227
4/28/2023 17:43:15.050,-1.289,-0.215,-0.18
4/28/2023 17:43:15.060,-1.355,-0.211,-0.117
4/28/2023 17:43:15.070,-1.441,-0.23,-0.094
4/28/2023 17:43:15.080,-1.523,-0.27,-0.078
4/28/2023 17:43:15.090,-1.617,-0.328,-0.109
4/28/2023 17:43:15.100,-1.707,-0.371,-0.152
4/28/2023 17:43:15.110,-1.801,-0.438,-0.18
4/28/2023 17:43:15.120,-1.848,-0.668,-0.184
4/28/2023 17:43:15.130,-1.891,-0.688,-0.188
4/28/2023 17:43:15.140,-2.051,-1.152,-0.191
4/28/2023 17:43:15.150,-2.332,-1.266,-0.223
4/28/2023 17:43:15.160,-2.5,-1.23,-0.215
4/28/2023 17:43:15.170,-2.629,-1.398,-0.215
4/28/2023 17:43:15.180,-2.457,-1.703,-0.16
4/28/2023 17:43:15.190,-2.223,-1.461,-0.113
4/28/2023 17:43:15.200,-1.863,-1.66,-0.133
4/28/2023 17:43:15.210,-1.406,-1.891,-0.082
4/28/2023 17:43:15.220,-0.93,-0.871,-0.59
4/28/2023 17:43:15.230,-1.172,0.219,-1.086
4/28/2023 17:43:15.240,-2.422,0.344,-1.285
4/28/2023 17:43:15.250,-2.238,-0.191,-0.547
4/28/2023 17:43:15.260,-1.387,-0.672,0.02
4/28/2023 17:43:15.270,-0.863,-1,0.297
4/28/2023 17:43:15.280,-0.582,-0.969,0.32
4/28/2023 17:43:15.290,-0.387,-0.73,0.184
4/28/2023 17:43:15.300,-0.344,-0.461,0.016
4/28/2023 17:43:15.310,-0.422,-0.449,-0.012
4/28/2023 17:43:15.320,-0.559,-0.41,0
4/28/2023 17:43:15.330,-0.551,-0.262,0.082
4/28/2023 17:43:15.340,-0.418,-0.215,0.16
4/28/2023 17:43:15.350,-0.473,-0.301,0.156
4/28/2023 17:43:15.360,-0.531,-0.355,0.152
4/28/2023 17:43:15.370,-0.621,-0.355,0.098
4/28/2023 17:43:15.380,-0.695,-0.328,0.031
4/28/2023 17:43:15.390,-0.746,-0.301,-0.031
4/28/2023 17:43:15.400,-0.832,-0.301,-0.047
4/28/2023 17:43:15.410,-0.957,-0.281,-0.043
4/28/2023 17:43:15.420,-1.086,-0.273,-0.039
4/28/2023 17:43:15.430,-1.23,-0.305,-0.043
4/28/2023 17:43:15.440,-1.395,-0.348,-0.063
4/28/2023 17:43:15.450,-1.578,-0.332,-0.102
4/28/2023 17:43:15.460,-1.793,-0.16,-0.25
4/28/2023 17:43:15.470,-2.082,0.152,-0.363
4/28/2023 17:43:15.480,-2.387,0.414,-0.426
4/28/2023 17:43:15.490,-2.563,0.598,-0.496
4/28/2023 17:43:15.500,-2.656,0.801,-0.664
4/28/2023 17:43:15.510,-2.754,1.074,-0.844
4/28/2023 17:43:15.520,-2.77,1.438,-0.949
4/28/2023 17:43:15.530,-2.578,1.734,-1.035
4/28/2023 17:43:15.540,-2.262,1.945,-1.117
4/28/2023 17:43:15.550,-2.059,2.277,-1.195
4/28/2023 17:43:15.560,-1.816,2.629,-1.227
4/28/2023 17:43:15.570,-1.559,2.777,-1.238
4/28/2023 17:43:15.580,-1.418,2.762,-1.145
4/28/2023 17:43:15.590,-1.621,2.223,-1.07
4/28/2023 17:43:15.600,-2.051,0.094,-0.078
4/28/2023 17:43:15.610,-2.48,-2.234,1.262
4/28/2023 17:43:15.620,-1.637,0.156,0.098
4/28/2023 17:43:15.630,-2.977,1.008,-0.5
4/28/2023 17:43:15.640,-3.141,0.773,-0.582
4/28/2023 17:43:15.650,-1.359,0.285,-0.227
4/28/2023 17:43:15.660,-0.387,-0.109,-0.43
4/28/2023 17:43:15.670,-0.465,0.113,-0.605
4/28/2023 17:43:15.680,-0.77,0.492,-0.559
4/28/2023 17:43:15.690,-0.973,0.543,-0.512
4/28/2023 17:43:15.700,-1.211,0.465,-0.695
4/28/2023 17:43:15.710,-1.492,0.348,-0.398
4/28/2023 17:43:15.720,-1.184,0.238,-0.309
4/28/2023 17:43:15.730,-1.074,0.027,-0.273
4/28/2023 17:43:15.740,-0.984,-0.066,-0.281
4/28/2023 17:43:15.750,-0.93,-0.086,-0.277
4/28/2023 17:43:15.760,-0.961,-0.074,-0.25
4/28/2023 17:43:15.770,-0.969,-0.121,-0.293
4/28/2023 17:43:15.780,-0.984,-0.125,-0.301
4/28/2023 17:43:15.790,-0.992,-0.129,-0.297
4/28/2023 17:43:15.800,-1.004,-0.09,-0.316
4/28/2023 17:43:15.810,-1.004,-0.031,-0.328
4/28/2023 17:43:15.820,-1.008,-0.023,-0.328
4/28/2023 17:43:15.830,-1.012,-0.051,-0.289
4/28/2023 17:43:15.840,-1.016,-0.074,-0.23
4/28/2023 17:43:15.850,-0.992,-0.039,-0.207
4/28/2023 17:43:15.860,-0.961,-0.09,-0.141
4/28/2023 17:43:15.870,-0.988,-0.195,-0.113
4/28/2023 17:43:15.880,-1.008,-0.129,-0.129
4/28/2023 17:43:15.890,-1.016,-0.016,-0.184
4/28/2023 17:43:15.900,-1.004,-0.016,-0.281
4/28/2023 17:43:15.910,-0.977,0,-0.344
4/28/2023 17:43:15.920,-0.992,-0.008,-0.355
4/28/2023 17:43:15.930,-1.023,-0.047,-0.355
4/28/2023 17:43:15.940,-1.059,-0.074,-0.332
4/28/2023 17:43:15.950,-1.105,-0.18,-0.344
4/28/2023 17:43:15.960,-1.172,-0.199,-0.34
4/28/2023 17:43:15.970,-1.277,-0.188,-0.289
4/28/2023 17:43:15.980,-1.367,-0.18,-0.281
4/28/2023 17:43:15.990,-1.41,-0.215,-0.227
4/28/2023 17:43:16.000,-1.438,-0.215,-0.18
4/28/2023 17:43:16.010,-1.465,-0.195,-0.109
4/28/2023 17:43:16.020,-1.496,-0.223,-0.059
4/28/2023 17:43:16.030,-1.586,-0.27,-0.035
4/28/2023 17:43:16.040,-1.688,-0.34,-0.074
4/28/2023 17:43:16.050,-1.785,-0.438,-0.172
4/28/2023 17:43:16.060,-1.863,-0.582,-0.242
4/28/2023 17:43:16.070,-1.918,-0.637,-0.246
4/28/2023 17:43:16.080,-1.973,-0.918,-0.254
4/28/2023 17:43:16.090,-2.113,-1.152,-0.195
4/28/2023 17:43:16.100,-2.484,-1.27,-0.141
4/28/2023 17:43:16.110,-2.68,-1.367,-0.168
4/28/2023 17:43:16.120,-2.543,-1.578,-0.152
4/28/2023 17:43:16.130,-2.398,-1.566,-0.191
4/28/2023 17:43:16.140,-2.262,-1.555,-0.191
4/28/2023 17:43:16.150,-1.594,-1.789,0.02
4/28/2023 17:43:16.160,-0.875,-1.27,-0.195
4/28/2023 17:43:16.170,-1.059,-0.426,-0.789
4/28/2023 17:43:16.180,-2.07,0.234,-1.328
4/28/2023 17:43:16.190,-2.191,-0.195,-0.676
4/28/2023 17:43:16.200,-1.445,-0.684,-0.184
4/28/2023 17:43:16.210,-0.871,-1.027,0.223
4/28/2023 17:43:16.220,-0.609,-1.047,0.375
4/28/2023 17:43:16.230,-0.484,-0.801,0.313
4/28/2023 17:43:16.240,-0.441,-0.52,0.117
4/28/2023 17:43:16.250,-0.496,-0.449,-0.008
4/28/2023 17:43:16.260,-0.652,-0.395,-0.008
4/28/2023 17:43:16.270,-0.695,-0.273,0.059
4/28/2023 17:43:16.280,-0.613,-0.23,0.156
4/28/2023 17:43:16.290,-0.508,-0.301,0.184
4/28/2023 17:43:16.300,-0.563,-0.328,0.133
4/28/2023 17:43:16.310,-0.699,-0.242,0.066
4/28/2023 17:43:16.320,-0.77,-0.191,0.027
4/28/2023 17:43:16.330,-0.801,-0.203,0.016
4/28/2023 17:43:16.340,-0.832,-0.23,0.035
4/28/2023 17:43:16.350,-0.91,-0.277,0.047
4/28/2023 17:43:16.360,-1.02,-0.277,0.043
4/28/2023 17:43:16.370,-1.133,-0.266,0
4/28/2023 17:43:16.380,-1.266,-0.281,-0.047
4/28/2023 17:43:16.390,-1.473,-0.273,-0.086
4/28/2023 17:43:16.400,-1.762,-0.164,-0.215
4/28/2023 17:43:16.410,-2.043,0.035,-0.297
4/28/2023 17:43:16.420,-2.219,0.254,-0.344
4/28/2023 17:43:16.430,-2.352,0.539,-0.465
4/28/2023 17:43:16.440,-2.496,0.805,-0.621
4/28/2023 17:43:16.450,-2.609,1.082,-0.688
4/28/2023 17:43:16.460,-2.684,1.406,-0.715
4/28/2023 17:43:16.470,-2.605,1.664,-0.809
4/28/2023 17:43:16.480,-2.367,1.809,-0.996
4/28/2023 17:43:16.490,-2.152,2.031,-1.234
4/28/2023 17:43:16.500,-1.961,2.492,-1.492
4/28/2023 17:43:16.510,-1.625,2.434,-1.348
4/28/2023 17:43:16.520,-1.316,2.816,-1.285
4/28/2023 17:43:16.530,-1.348,2.762,-1.113
4/28/2023 17:43:16.540,-1.547,2.125,-0.801
4/28/2023 17:43:16.550,-1.848,0.152,0.203
4/28/2023 17:43:16.560,-1.973,-3.043,1.281
4/28/2023 17:43:16.570,-1.285,-0.68,0.117
4/28/2023 17:43:16.580,-2.531,1.02,-0.793
4/28/2023 17:43:16.590,-3.785,1.109,-1.18
4/28/2023 17:43:16.600,-1.949,0.918,-0.391
4/28/2023 17:43:16.610,-0.703,0.094,-0.348
4/28/2023 17:43:16.620,-0.656,-0.051,-0.426
4/28/2023 17:43:16.630,-0.688,0.223,-0.527
4/28/2023 17:43:16.640,-0.813,0.313,-0.773
4/28/2023 17:43:16.650,-1.348,0.461,-0.59
4/28/2023 17:43:16.660,-1.25,0.359,-0.484
4/28/2023 17:43:16.670,-1.098,0.098,-0.398
4/28/2023 17:43:16.680,-1.016,0.031,-0.32
4/28/2023 17:43:16.690,-1.012,-0.031,-0.273
4/28/2023 17:43:16.700,-1.02,-0.039,-0.285
4/28/2023 17:43:16.710,-0.984,0.004,-0.273
4/28/2023 17:43:16.720,-1.012,0.012,-0.234
4/28/2023 17:43:16.730,-1.035,-0.039,-0.191
4/28/2023 17:43:16.740,-1.039,-0.059,-0.191
4/28/2023 17:43:16.750,-1.043,-0.066,-0.215
4/28/2023 17:43:16.760,-1.051,-0.07,-0.238
4/28/2023 17:43:16.770,-1.035,-0.07,-0.25
4/28/2023 17:43:16.780,-1.016,-0.082,-0.27
4/28/2023 17:43:16.790,-0.973,-0.066,-0.301
4/28/2023 17:43:16.800,-0.953,-0.117,-0.289
4/28/2023 17:43:16.810,-0.988,-0.137,-0.254
4/28/2023 17:43:16.820,-1.008,-0.051,-0.23
4/28/2023 17:43:16.830,-0.992,-0.016,-0.242
4/28/2023 17:43:16.840,-1.012,0.004,-0.246
4/28/2023 17:43:16.850,-1.023,-0.027,-0.27
4/28/2023 17:43:16.860,-1.051,-0.063,-0.266
4/28/2023 17:43:16.870,-1.063,-0.141,-0.246
4/28/2023 17:43:16.880,-1.113,-0.152,-0.215
4/28/2023 17:43:16.890,-1.129,-0.105,-0.211
4/28/2023 17:43:16.900,-1.086,-0.168,-0.191
4/28/2023 17:43:16.910,-1.098,-0.168,-0.168
4/28/2023 17:43:16.920,-1.148,-0.156,-0.18
4/28/2023 17:43:16.930,-1.223,-0.156,-0.219
4/28/2023 17:43:16.940,-1.281,-0.168,-0.25
4/28/2023 17:43:16.950,-1.344,-0.18,-0.223
4/28/2023 17:43:16.960,-1.414,-0.195,-0.156
4/28/2023 17:43:16.970,-1.512,-0.215,-0.098
4/28/2023 17:43:16.980,-1.609,-0.258,-0.07
4/28/2023 17:43:16.990,-1.715,-0.297,-0.098
4/28/2023 17:43:17.000,-1.84,-0.391,-0.109
4/28/2023 17:43:17.010,-1.902,-0.461,-0.148
4/28/2023 17:43:17.020,-1.992,-0.699,-0.211
4/28/2023 17:43:17.030,-2.16,-1.02,-0.172
4/28/2023 17:43:17.040,-2.461,-1.172,-0.156
4/28/2023 17:43:17.050,-2.613,-1.344,-0.102
4/28/2023 17:43:17.060,-2.66,-1.574,-0.125
4/28/2023 17:43:17.070,-2.496,-1.742,-0.199
4/28/2023 17:43:17.080,-2.488,-1.535,-0.195
4/28/2023 17:43:17.090,-2.082,-1.746,-0.172
4/28/2023 17:43:17.100,-1.195,-1.586,-0.004
4/28/2023 17:43:17.110,-0.938,-0.797,-0.434
4/28/2023 17:43:17.120,-1.449,0.133,-0.918
4/28/2023 17:43:17.130,-2.469,0.227,-1.074
4/28/2023 17:43:17.140,-2.027,-0.25,-0.449
4/28/2023 17:43:17.150,-1.293,-0.754,-0.094
4/28/2023 17:43:17.160,-0.875,-1.055,0.129
4/28/2023 17:43:17.170,-0.633,-0.988,0.203
4/28/2023 17:43:17.180,-0.484,-0.719,0.148
4/28/2023 17:43:17.190,-0.379,-0.465,0.004
4/28/2023 17:43:17.200,-0.313,-0.465,-0.055
4/28/2023 17:43:17.210,-0.359,-0.43,-0.039
4/28/2023 17:43:17.220,-0.383,-0.277,-0.012
4/28/2023 17:43:17.230,-0.258,-0.195,0.047
4/28/2023 17:43:17.240,-0.324,-0.293,0.027
4/28/2023 17:43:17.250,-0.363,-0.355,0.039
4/28/2023 17:43:17.260,-0.477,-0.355,0.004
4/28/2023 17:43:17.270,-0.566,-0.316,-0.043
4/28/2023 17:43:17.280,-0.641,-0.305,-0.063
4/28/2023 17:43:17.290,-0.723,-0.281,-0.066
4/28/2023 17:43:17.300,-0.84,-0.262,-0.074
4/28/2023 17:43:17.310,-0.977,-0.25,-0.098
4/28/2023 17:43:17.320,-1.133,-0.242,-0.133
4/28/2023 17:43:17.330,-1.297,-0.238,-0.18
4/28/2023 17:43:17.340,-1.484,-0.23,-0.25
4/28/2023 17:43:17.350,-1.703,-0.18,-0.266
4/28/2023 17:43:17.360,-1.93,-0.07,-0.254
4/28/2023 17:43:17.370,-2.152,0.129,-0.242
4/28/2023 17:43:17.380,-2.383,0.375,-0.293
4/28/2023 17:43:17.390,-2.676,0.711,-0.332
4/28/2023 17:43:17.400,-3.016,1.004,-0.316
4/28/2023 17:43:17.410,-3.07,1.242,-0.297
4/28/2023 17:43:17.420,-2.785,1.438,-0.527
4/28/2023 17:43:17.430,-2.391,1.668,-0.883
4/28/2023 17:43:17.440,-2.195,2.105,-1.211
4/28/2023 17:43:17.450,-1.965,2.785,-1.34
4/28/2023 17:43:17.460,-1.719,2.73,-1.199
4/28/2023 17:43:17.470,-1.582,2.844,-1.301
4/28/2023 17:43:17.480,-1.594,2.824,-1.344
4/28/2023 17:43:17.490,-1.887,1.633,-0.816
4/28/2023 17:43:17.500,-2.359,-2,0.766
4/28/2023 17:43:17.510,-1.418,-2.047,0.777
4/28/2023 17:43:17.520,-1.535,0.156,-0.105
4/28/2023 17:43:17.530,-2.766,0.879,-0.695
4/28/2023 17:43:17.540,-2.387,0.969,-0.441
4/28/2023 17:43:17.550,-1.465,0.539,-0.309
4/28/2023 17:43:17.560,-1.059,-0.027,-0.367
4/28/2023 17:43:17.570,-0.852,-0.004,-0.523
4/28/2023 17:43:17.580,-0.766,0.199,-0.531
4/28/2023 17:43:17.590,-0.84,0.176,-0.598
4/28/2023 17:43:17.600,-1.133,0.172,-0.711
4/28/2023 17:43:17.610,-1.34,0.301,-0.434
4/28/2023 17:43:17.620,-1.125,0.195,-0.371
4/28/2023 17:43:17.630,-1.055,0.008,-0.309
4/28/2023 17:43:17.640,-1.02,-0.016,-0.258
4/28/2023 17:43:17.650,-0.977,-0.016,-0.238
4/28/2023 17:43:17.660,-0.965,-0.039,-0.234
4/28/2023 17:43:17.670,-0.98,-0.059,-0.238
4/28/2023 17:43:17.680,-1.008,-0.086,-0.188
4/28/2023 17:43:17.690,-1.016,-0.113,-0.137
4/28/2023 17:43:17.700,-1.031,-0.109,-0.145
4/28/2023 17:43:17.710,-1.035,-0.027,-0.184
4/28/2023 17:43:17.720,-1.012,-0.047,-0.184
4/28/2023 17:43:17.730,-1.02,-0.086,-0.195
4/28/2023 17:43:17.740,-0.996,-0.039,-0.215
4/28/2023 17:43:17.750,-0.977,-0.078,-0.188
4/28/2023 17:43:17.760,-0.988,-0.129,-0.168
4/28/2023 17:43:17.770,-1.012,-0.133,-0.16
4/28/2023 17:43:17.780,-0.996,-0.102,-0.18
4/28/2023 17:43:17.790,-0.996,-0.113,-0.195
4/28/2023 17:43:17.800,-0.98,-0.098,-0.23
4/28/2023 17:43:17.810,-1.008,-0.098,-0.328
4/28/2023 17:43:17.820,-0.973,-0.09,-0.359
4/28/2023 17:43:17.830,-0.973,-0.121,-0.375
4/28/2023 17:43:17.840,-0.984,-0.152,-0.379
4/28/2023 17:43:17.850,-0.969,-0.207,-0.328
4/28/2023 17:43:17.860,-1.039,-0.223,-0.305
4/28/2023 17:43:17.870,-1.066,-0.313,-0.262
4/28/2023 17:43:17.880,-1.164,-0.281,-0.199
4/28/2023 17:43:17.890,-1.301,-0.238,-0.172
4/28/2023 17:43:17.900,-1.461,-0.23,-0.16
4/28/2023 17:43:17.910,-1.609,-0.195,-0.145
4/28/2023 17:43:17.920,-1.703,-0.207,-0.125
4/28/2023 17:43:17.930,-1.789,-0.238,-0.109
4/28/2023 17:43:17.940,-1.879,-0.242,-0.117
4/28/2023 17:43:17.950,-2.012,-0.348,-0.16
4/28/2023 17:43:17.960,-2.02,-0.473,-0.211
4/28/2023 17:43:17.970,-2.164,-0.609,-0.285
4/28/2023 17:43:17.980,-2.273,-0.902,-0.227
4/28/2023 17:43:17.990,-2.52,-1.125,-0.051
4/28/2023 17:43:18.000,-2.832,-1.375,0.023
4/28/2023 17:43:18.010,-2.676,-1.641,-0.094
4/28/2023 17:43:18.020,-2.531,-1.684,-0.094
4/28/2023 17:43:18.030,-2.582,-1.48,-0.141
4/28/2023 17:43:18.040,-2.082,-1.746,-0.129
4/28/2023 17:43:18.050,-1.121,-1.742,-0.039
4/28/2023 17:43:18.060,-0.891,-0.852,-0.711
4/28/2023 17:43:18.070,-1.574,0.008,-1.309
4/28/2023 17:43:18.080,-2.066,-0.215,-0.754
4/28/2023 17:43:18.090,-1.527,-0.883,-0.242
4/28/2023 17:43:18.100,-1.008,-1.297,0.152
4/28/2023 17:43:18.110,-0.602,-1.227,0.301
4/28/2023 17:43:18.120,-0.504,-1.059,0.336
4/28/2023 17:43:18.130,-0.457,-0.77,0.23
4/28/2023 17:43:18.140,-0.445,-0.52,0.117
4/28/2023 17:43:18.150,-0.535,-0.422,0.102
4/28/2023 17:43:18.160,-0.551,-0.375,0.133
4/28/2023 17:43:18.170,-0.52,-0.285,0.184
4/28/2023 17:43:18.180,-0.566,-0.301,0.188
4/28/2023 17:43:18.190,-0.641,-0.309,0.137
4/28/2023 17:43:18.200,-0.684,-0.316,0.055
4/28/2023 17:43:18.210,-0.754,-0.281,-0.039
4/28/2023 17:43:18.220,-0.809,-0.23,-0.105
4/28/2023 17:43:18.230,-0.879,-0.176,-0.133
4/28/2023 17:43:18.240,-0.973,-0.148,-0.133
4/28/2023 17:43:18.250,-1.105,-0.18,-0.109
4/28/2023 17:43:18.260,-1.211,-0.23,-0.059
4/28/2023 17:43:18.270,-1.332,-0.262,-0.023
4/28/2023 17:43:18.280,-1.508,-0.223,-0.047
4/28/2023 17:43:18.290,-1.754,-0.137,-0.117
4/28/2023 17:43:18.300,-2.078,0.027,-0.238
4/28/2023 17:43:18.310,-2.328,0.168,-0.285
4/28/2023 17:43:18.320,-2.508,0.297,-0.391
4/28/2023 17:43:18.330,-2.664,0.5,-0.516
4/28/2023 17:43:18.340,-2.844,0.82,-0.676
4/28/2023 17:43:18.350,-2.801,1.207,-0.813
4/28/2023 17:43:18.360,-2.684,1.48,-0.934
4/28/2023 17:43:18.370,-2.461,1.789,-1.125
4/28/2023 17:43:18.380,-2.176,2.328,-1.324
4/28/2023 17:43:18.390,-1.953,2.941,-1.582
4/28/2023 17:43:18.400,-1.656,2.82,-1.453
4/28/2023 17:43:18.410,-1.43,2.883,-1.414
4/28/2023 17:43:18.420,-1.488,2.699,-1.309
4/28/2023 17:43:18.430,-1.973,1.32,-0.402
4/28/2023 17:43:18.440,-2.508,-2.461,1.445
4/28/2023 17:43:18.450,-1.395,-1.371,0.719
4/28/2023 17:43:18.460,-1.828,0.609,-0.184
4/28/2023 17:43:18.470,-2.902,1.121,-0.844
4/28/2023 17:43:18.480,-2.352,1.055,-0.496
4/28/2023 17:43:18.490,-1.535,0.551,-0.316
4/28/2023 17:43:18.500,-1.129,-0.082,-0.422
4/28/2023 17:43:18.510,-0.77,-0.082,-0.523
4/28/2023 17:43:18.520,-0.609,0.215,-0.871
4/28/2023 17:43:18.530,-1.148,0.418,-0.664
4/28/2023 17:43:18.540,-1.223,0.465,-0.449
4/28/2023 17:43:18.550,-1.145,0.191,-0.387
4/28/2023 17:43:18.560,-1.109,0.027,-0.277
4/28/2023 17:43:18.570,-0.988,0,-0.219
4/28/2023 17:43:18.580,-0.984,-0.023,-0.215
4/28/2023 17:43:18.590,-0.969,-0.043,-0.211
4/28/2023 17:43:18.600,-0.973,-0.082,-0.238
4/28/2023 17:43:18.610,-1,-0.105,-0.199
4/28/2023 17:43:18.620,-1.02,-0.16,-0.172
4/28/2023 17:43:18.630,-1.027,-0.156,-0.195
4/28/2023 17:43:18.640,-1.02,-0.113,-0.23
4/28/2023 17:43:18.650,-1.012,-0.082,-0.266
4/28/2023 17:43:18.660,-0.992,-0.055,-0.285
4/28/2023 17:43:18.670,-0.969,-0.051,-0.289
4/28/2023 17:43:18.680,-0.961,-0.07,-0.23
4/28/2023 17:43:18.690,-0.984,-0.105,-0.188
4/28/2023 17:43:18.700,-1.016,-0.094,-0.148
4/28/2023 17:43:18.710,-0.996,-0.074,-0.121
4/28/2023 17:43:18.720,-0.977,-0.012,-0.129
4/28/2023 17:43:18.730,-1.004,-0.035,-0.199
4/28/2023 17:43:18.740,-1.023,-0.07,-0.281
4/28/2023 17:43:18.750,-1.004,-0.098,-0.332
4/28/2023 17:43:18.760,-1.008,-0.098,-0.359
4/28/2023 17:43:18.770,-1.027,-0.113,-0.332
4/28/2023 17:43:18.780,-1.047,-0.191,-0.316
4/28/2023 17:43:18.790,-1.082,-0.195,-0.293
4/28/2023 17:43:18.800,-1.129,-0.281,-0.215
4/28/2023 17:43:18.810,-1.203,-0.219,-0.172
4/28/2023 17:43:18.820,-1.273,-0.195,-0.16
4/28/2023 17:43:18.830,-1.375,-0.188,-0.133
4/28/2023 17:43:18.840,-1.484,-0.16,-0.117
4/28/2023 17:43:18.850,-1.574,-0.215,-0.098
4/28/2023 17:43:18.860,-1.691,-0.258,-0.094
4/28/2023 17:43:18.870,-1.809,-0.258,-0.09
4/28/2023 17:43:18.880,-1.93,-0.297,-0.09
4/28/2023 17:43:18.890,-2.027,-0.477,-0.105
4/28/2023 17:43:18.900,-2.086,-0.516,-0.188
4/28/2023 17:43:18.910,-2.152,-0.883,-0.277
4/28/2023 17:43:18.920,-2.281,-1.109,-0.18
4/28/2023 17:43:18.930,-2.703,-1.262,-0.113
4/28/2023 17:43:18.940,-2.766,-1.512,-0.133
4/28/2023 17:43:18.950,-2.543,-1.781,-0.309
4/28/2023 17:43:18.960,-2.441,-1.555,-0.285
4/28/2023 17:43:18.970,-2.27,-1.637,-0.32
4/28/2023 17:43:18.980,-1.609,-1.988,-0.066
4/28/2023 17:43:18.990,-1.016,-1.707,-0.117
4/28/2023 17:43:19.000,-0.859,-0.621,-0.781
4/28/2023 17:43:19.010,-1.793,0.125,-1.27
4/28/2023 17:43:19.020,-2.105,-0.387,-0.5
4/28/2023 17:43:19.030,-1.332,-1.129,-0.18
4/28/2023 17:43:19.040,-0.777,-1.363,0.156
4/28/2023 17:43:19.050,-0.492,-1.195,0.289
4/28/2023 17:43:19.060,-0.449,-0.895,0.25
4/28/2023 17:43:19.070,-0.441,-0.625,0.094
4/28/2023 17:43:19.080,-0.469,-0.477,-0.008
4/28/2023 17:43:19.090,-0.578,-0.438,-0.016
4/28/2023 17:43:19.100,-0.641,-0.391,0.004
4/28/2023 17:43:19.110,-0.652,-0.332,0.035
4/28/2023 17:43:19.120,-0.637,-0.332,0.043
4/28/2023 17:43:19.130,-0.68,-0.387,0.035
4/28/2023 17:43:19.140,-0.781,-0.383,-0.008
4/28/2023 17:43:19.150,-0.895,-0.313,-0.066
4/28/2023 17:43:19.160,-0.984,-0.246,-0.109
4/28/2023 17:43:19.170,-1.031,-0.219,-0.133
4/28/2023 17:43:19.180,-1.117,-0.234,-0.137
4/28/2023 17:43:19.190,-1.234,-0.254,-0.129
4/28/2023 17:43:19.200,-1.391,-0.293,-0.133
4/28/2023 17:43:19.210,-1.563,-0.273,-0.16
4/28/2023 17:43:19.220,-1.789,-0.129,-0.223
4/28/2023 17:43:19.230,-2.07,0.02,-0.297
4/28/2023 17:43:19.240,-2.34,0.234,-0.324
4/28/2023 17:43:19.250,-2.492,0.457,-0.363
4/28/2023 17:43:19.260,-2.582,0.715,-0.426
4/28/2023 17:43:19.270,-2.723,1.098,-0.566
4/28/2023 17:43:19.280,-2.75,1.477,-0.734
4/28/2023 17:43:19.290,-2.684,1.617,-0.844
4/28/2023 17:43:19.300,-2.484,1.727,-1.051
4/28/2023 17:43:19.310,-2.211,2.16,-1.258
4/28/2023 17:43:19.320,-1.965,2.723,-1.363
4/28/2023 17:43:19.330,-1.648,2.883,-1.34
4/28/2023 17:43:19.340,-1.445,3.031,-1.285
4/28/2023 17:43:19.350,-1.563,2.574,-1.195
4/28/2023 17:43:19.360,-1.789,1.539,-0.473
4/28/2023 17:43:19.370,-2.555,-1.98,1.398
4/28/2023 17:43:19.380,-1.684,-1.16,0.781
4/28/2023 17:43:19.390,-1.914,0.441,-0.344
4/28/2023 17:43:19.400,-3.012,1.055,-0.926
4/28/2023 17:43:19.410,-2.23,0.996,-0.465
4/28/2023 17:43:19.420,-1.09,0.324,-0.375
4/28/2023 17:43:19.430,-0.801,-0.066,-0.5
4/28/2023 17:43:19.440,-0.773,0.109,-0.598
4/28/2023 17:43:19.450,-0.723,0.285,-0.715
4/28/2023 17:43:19.460,-1.07,0.395,-0.68
4/28/2023 17:43:19.470,-1.305,0.434,-0.449
4/28/2023 17:43:19.480,-1.156,0.27,-0.398
4/28/2023 17:43:19.490,-1.117,0.051,-0.305
4/28/2023 17:43:19.500,-0.988,-0.016,-0.199
4/28/2023 17:43:19.510,-0.965,0.012,-0.168
4/28/2023 17:43:19.520,-1.004,0.023,-0.16
4/28/2023 17:43:19.530,-1.035,-0.063,-0.195
4/28/2023 17:43:19.540,-1.035,-0.117,-0.207
4/28/2023 17:43:19.550,-1.031,-0.137,-0.238
4/28/2023 17:43:19.560,-1.023,-0.141,-0.281
4/28/2023 17:43:19.570,-1.004,-0.105,-0.297
4/28/2023 17:43:19.580,-1,-0.074,-0.305
4/28/2023 17:43:19.590,-0.988,-0.094,-0.305
4/28/2023 17:43:19.600,-0.965,-0.066,-0.281
4/28/2023 17:43:19.610,-0.977,-0.109,-0.242
4/28/2023 17:43:19.620,-1.008,-0.141,-0.215
4/28/2023 17:43:19.630,-1.012,-0.125,-0.188
4/28/2023 17:43:19.640,-1.055,-0.16,-0.172
4/28/2023 17:43:19.650,-1.004,-0.082,-0.211
4/28/2023 17:43:19.660,-1.012,-0.016,-0.262
4/28/2023 17:43:19.670,-1.008,-0.012,-0.316
4/28/2023 17:43:19.680,-1.016,-0.027,-0.375
4/28/2023 17:43:19.690,-1.051,-0.027,-0.387
4/28/2023 17:43:19.700,-1.07,-0.082,-0.336
4/28/2023 17:43:19.710,-1.133,-0.094,-0.246
4/28/2023 17:43:19.720,-1.117,-0.156,-0.156
4/28/2023 17:43:19.730,-1.145,-0.238,-0.113
4/28/2023 17:43:19.740,-1.195,-0.234,-0.148
4/28/2023 17:43:19.750,-1.23,-0.238,-0.207
4/28/2023 17:43:19.760,-1.289,-0.234,-0.219
4/28/2023 17:43:19.770,-1.379,-0.258,-0.23
4/28/2023 17:43:19.780,-1.473,-0.25,-0.188
4/28/2023 17:43:19.790,-1.551,-0.25,-0.152
4/28/2023 17:43:19.800,-1.625,-0.297,-0.125
4/28/2023 17:43:19.810,-1.746,-0.344,-0.121
4/28/2023 17:43:19.820,-1.848,-0.422,-0.133
4/28/2023 17:43:19.830,-1.953,-0.473,-0.164
4/28/2023 17:43:19.840,-1.98,-0.691,-0.211
4/28/2023 17:43:19.850,-2.012,-0.941,-0.227
4/28/2023 17:43:19.860,-2.262,-1.105,-0.16
4/28/2023 17:43:19.870,-2.539,-1.324,-0.078
4/28/2023 17:43:19.880,-2.613,-1.547,-0.18
4/28/2023 17:43:19.890,-2.473,-1.711,-0.32
4/28/2023 17:43:19.900,-2.422,-1.59,-0.25
4/28/2023 17:43:19.910,-2.188,-1.598,-0.125
4/28/2023 17:43:19.920,-1.395,-1.609,0.082
4/28/2023 17:43:19.930,-1.102,-1.086,-0.328
4/28/2023 17:43:19.940,-1.422,-0.234,-0.93
4/28/2023 17:43:19.950,-2.16,0.012,-0.891
4/28/2023 17:43:19.960,-1.836,-0.539,-0.379
4/28/2023 17:43:19.970,-1.258,-0.891,-0.102
4/28/2023 17:43:19.980,-0.879,-0.965,0.113
4/28/2023 17:43:19.990,-0.637,-0.832,0.199
4/28/2023 17:43:20.000,-0.523,-0.691,0.195
4/28/2023 17:43:20.010,-0.398,-0.492,0.063
4/28/2023 17:43:20.020,-0.324,-0.371,0.012
4/28/2023 17:43:20.030,-0.379,-0.301,0.016
4/28/2023 17:43:20.040,-0.449,-0.219,0.047
4/28/2023 17:43:20.050,-0.43,-0.18,0.086
4/28/2023 17:43:20.060,-0.402,-0.234,0.113
4/28/2023 17:43:20.070,-0.445,-0.313,0.109
4/28/2023 17:43:20.080,-0.551,-0.34,0.078
4/28/2023 17:43:20.090,-0.656,-0.273,0.031
4/28/2023 17:43:20.100,-0.723,-0.203,0.004
4/28/2023 17:43:20.110,-0.793,-0.207,-0.004
4/28/2023 17:43:20.120,-0.918,-0.234,-0.023
4/28/2023 17:43:20.130,-1.074,-0.227,-0.035
4/28/2023 17:43:20.140,-1.238,-0.27,-0.051
4/28/2023 17:43:20.150,-1.445,-0.316,-0.063
4/28/2023 17:43:20.160,-1.684,-0.313,-0.066
4/28/2023 17:43:20.170,-1.93,-0.234,-0.094
4/28/2023 17:43:20.180,-2.176,-0.059,-0.141
4/28/2023 17:43:20.190,-2.43,0.172,-0.207
4/28/2023 17:43:20.200,-2.637,0.418,-0.285
4/28/2023 17:43:20.210,-2.859,0.73,-0.379
4/28/2023 17:43:20.220,-3.063,1.09,-0.48
4/28/2023 17:43:20.230,-3.023,1.391,-0.59
4/28/2023 17:43:20.240,-2.766,1.641,-0.863
4/28/2023 17:43:20.250,-2.398,1.945,-1.18
4/28/2023 17:43:20.260,-2.137,2.477,-1.387
4/28/2023 17:43:20.270,-1.844,3.129,-1.492
4/28/2023 17:43:20.280,-1.539,2.965,-1.289
4/28/2023 17:43:20.290,-1.441,3.109,-1.266
4/28/2023 17:43:20.300,-1.496,2.906,-1.234
4/28/2023 17:43:20.310,-1.852,1.473,-0.543
4/28/2023 17:43:20.320,-2.047,-2.371,0.617
4/28/2023 17:43:20.330,-1.262,-2.988,1.48
4/28/2023 17:43:20.340,-1.199,0.223,0.102
4/28/2023 17:43:20.350,-2.816,0.746,-0.848
4/28/2023 17:43:20.360,-2.844,1.078,-0.676
4/28/2023 17:43:20.370,-1.809,0.828,-0.387
4/28/2023 17:43:20.380,-1.367,0.211,-0.41
4/28/2023 17:43:20.390,-1.012,-0.055,-0.477
4/28/2023 17:43:20.400,-0.625,0.016,-0.5
4/28/2023 17:43:20.410,-0.598,0.105,-0.844
4/28/2023 17:43:20.420,-1.184,0.285,-0.648
4/28/2023 17:43:20.430,-1.172,0.391,-0.496
4/28/2023 17:43:20.440,-1.09,0.184,-0.406
4/28/2023 17:43:20.450,-1.035,0.125,-0.32
4/28/2023 17:43:20.460,-1.035,0.02,-0.242
4/28/2023 17:43:20.470,-1.016,-0.043,-0.227
4/28/2023 17:43:20.480,-1.008,-0.031,-0.219
4/28/2023 17:43:20.490,-1.027,-0.156,-0.18
4/28/2023 17:43:20.500,-0.996,-0.18,-0.156
4/28/2023 17:43:20.510,-1.063,-0.086,-0.156
4/28/2023 17:43:20.520,-1.07,-0.094,-0.168
4/28/2023 17:43:20.530,-1.023,-0.09,-0.227
4/28/2023 17:43:20.540,-1.012,-0.063,-0.281
4/28/2023 17:43:20.550,-0.98,-0.105,-0.309
4/28/2023 17:43:20.560,-0.945,-0.109,-0.328
4/28/2023 17:43:20.570,-0.914,-0.082,-0.32
4/28/2023 17:43:20.580,-0.934,-0.18,-0.273
4/28/2023 17:43:20.590,-0.934,-0.152,-0.273
4/28/2023 17:43:20.600,-0.934,-0.094,-0.301
4/28/2023 17:43:20.610,-0.945,-0.094,-0.316
4/28/2023 17:43:20.620,-0.988,-0.063,-0.301
4/28/2023 17:43:20.630,-1.016,-0.043,-0.316
4/28/2023 17:43:20.640,-1.031,-0.039,-0.352
4/28/2023 17:43:20.650,-1.016,-0.082,-0.352
4/28/2023 17:43:20.660,-1.004,-0.172,-0.316
4/28/2023 17:43:20.670,-1.039,-0.238,-0.285
4/28/2023 17:43:20.680,-1.117,-0.258,-0.266
4/28/2023 17:43:20.690,-1.281,-0.207,-0.191
4/28/2023 17:43:20.700,-1.398,-0.234,-0.172
4/28/2023 17:43:20.710,-1.48,-0.223,-0.109
4/28/2023 17:43:20.720,-1.551,-0.215,-0.043
4/28/2023 17:43:20.730,-1.594,-0.227,-0.004
4/28/2023 17:43:20.740,-1.641,-0.32,-0.039
4/28/2023 17:43:20.750,-1.73,-0.371,-0.109
4/28/2023 17:43:20.760,-1.836,-0.438,-0.145
4/28/2023 17:43:20.770,-1.895,-0.547,-0.188
4/28/2023 17:43:20.780,-1.98,-0.566,-0.234
4/28/2023 17:43:20.790,-2.086,-0.875,-0.242
4/28/2023 17:43:20.800,-2.34,-1.141,-0.172
4/28/2023 17:43:20.810,-2.629,-1.371,-0.16
4/28/2023 17:43:20.820,-2.66,-1.617,-0.207
4/28/2023 17:43:20.830,-2.539,-1.715,-0.324
4/28/2023 17:43:20.840,-2.426,-1.332,-0.203
4/28/2023 17:43:20.850,-2.246,-1.5,-0.32
4/28/2023 17:43:20.860,-1.352,-1.867,-0.09
4/28/2023 17:43:20.870,-0.973,-1.578,-0.152
4/28/2023 17:43:20.880,-1.148,-0.512,-0.977
4/28/2023 17:43:20.890,-1.891,0.242,-0.965
4/28/2023 17:43:20.900,-2.008,-0.227,-0.395
4/28/2023 17:43:20.910,-1.355,-0.719,-0.027
4/28/2023 17:43:20.920,-0.828,-1.133,0.332
4/28/2023 17:43:20.930,-0.551,-1.094,0.41
4/28/2023 17:43:20.940,-0.445,-0.824,0.355
4/28/2023 17:43:20.950,-0.375,-0.531,0.102
4/28/2023 17:43:20.960,-0.434,-0.414,-0.035
4/28/2023 17:43:20.970,-0.609,-0.375,-0.031
4/28/2023 17:43:20.980,-0.695,-0.363,0.047
4/28/2023 17:43:20.990,-0.648,-0.324,0.133
4/28/2023 17:43:21.000,-0.598,-0.285,0.133
4/28/2023 17:43:21.010,-0.629,-0.285,0.105
4/28/2023 17:43:21.020,-0.723,-0.254,0.039
4/28/2023 17:43:21.030,-0.797,-0.203,-0.023
4/28/2023 17:43:21.040,-0.848,-0.148,-0.051
4/28/2023 17:43:21.050,-0.902,-0.145,-0.047
4/28/2023 17:43:21.060,-1.012,-0.184,-0.055
4/28/2023 17:43:21.070,-1.133,-0.219,-0.094
4/28/2023 17:43:21.080,-1.25,-0.242,-0.16
4/28/2023 17:43:21.090,-1.383,-0.266,-0.25
4/28/2023 17:43:21.100,-1.578,-0.234,-0.379
4/28/2023 17:43:21.110,-1.82,-0.023,-0.523
4/28/2023 17:43:21.120,-2.059,0.188,-0.59
4/28/2023 17:43:21.130,-2.277,0.441,-0.59
4/28/2023 17:43:21.140,-2.43,0.711,-0.621
4/28/2023 17:43:21.150,-2.609,0.887,-0.641
4/28/2023 17:43:21.160,-2.727,1.219,-0.813
4/28/2023 17:43:21.170,-2.688,1.523,-0.844
4/28/2023 17:43:21.180,-2.434,1.777,-1.004
4/28/2023 17:43:21.190,-2.125,2.031,-1.215
4/28/2023 17:43:21.200,-1.852,2.547,-1.406
4/28/2023 17:43:21.210,-1.574,2.73,-1.391
4/28/2023 17:43:21.220,-1.426,2.551,-1.262
4/28/2023 17:43:21.230,-1.574,2.363,-1.047
4/28/2023 17:43:21.240,-1.902,1.383,0.016
4/28/2023 17:43:21.250,-2.641,-0.988,0.93
4/28/2023 17:43:21.260,-1.969,-0.359,-0.465
4/28/2023 17:43:21.270,-2.34,0.613,-0.648
4/28/2023 17:43:21.280,-2.66,0.977,-0.762
4/28/2023 17:43:21.290,-1.914,0.859,-0.258
4/28/2023 17:43:21.300,-1.125,0.18,-0.266
4/28/2023 17:43:21.310,-0.613,-0.344,-0.512
4/28/2023 17:43:21.320,-0.375,0.148,-0.977
4/28/2023 17:43:21.330,-0.945,0.609,-0.852
4/28/2023 17:43:21.340,-1.32,0.598,-0.504
4/28/2023 17:43:21.350,-1.141,0.254,-0.402
4/28/2023 17:43:21.360,-1.207,0.152,-0.266
4/28/2023 17:43:21.370,-1.086,0.066,-0.188
4/28/2023 17:43:21.380,-1.051,0.02,-0.152
4/28/2023 17:43:21.390,-1.035,0.016,-0.141
4/28/2023 17:43:21.400,-1.008,-0.047,-0.141
4/28/2023 17:43:21.410,-0.988,-0.086,-0.148
4/28/2023 17:43:21.420,-0.992,-0.074,-0.16
4/28/2023 17:43:21.430,-1.02,-0.027,-0.164
4/28/2023 17:43:21.440,-1.035,-0.027,-0.176
4/28/2023 17:43:21.450,-1.031,-0.063,-0.207
4/28/2023 17:43:21.460,-0.969,-0.039,-0.258
4/28/2023 17:43:21.470,-0.984,-0.129,-0.266
4/28/2023 17:43:21.480,-0.988,-0.102,-0.254
4/28/2023 17:43:21.490,-1.012,-0.094,-0.195
4/28/2023 17:43:21.500,-1.016,-0.07,-0.129
4/28/2023 17:43:21.510,-1.035,-0.063,-0.074
4/28/2023 17:43:21.520,-1.059,-0.051,-0.098
4/28/2023 17:43:21.530,-1.051,-0.07,-0.191
4/28/2023 17:43:21.540,-1.047,-0.082,-0.297
4/28/2023 17:43:21.550,-1.047,-0.09,-0.367
4/28/2023 17:43:21.560,-1.055,-0.117,-0.41
4/28/2023 17:43:21.570,-1.063,-0.125,-0.406
4/28/2023 17:43:21.580,-1.113,-0.137,-0.359
4/28/2023 17:43:21.590,-1.168,-0.121,-0.324
4/28/2023 17:43:21.600,-1.188,-0.145,-0.285
4/28/2023 17:43:21.610,-1.219,-0.188,-0.254
4/28/2023 17:43:21.620,-1.238,-0.223,-0.238
4/28/2023 17:43:21.630,-1.242,-0.223,-0.199
4/28/2023 17:43:21.640,-1.293,-0.246,-0.137
4/28/2023 17:43:21.650,-1.41,-0.223,-0.074
4/28/2023 17:43:21.660,-1.539,-0.246,-0.004
4/28/2023 17:43:21.670,-1.656,-0.293,0.008
4/28/2023 17:43:21.680,-1.754,-0.348,-0.004
4/28/2023 17:43:21.690,-1.84,-0.434,-0.027
4/28/2023 17:43:21.700,-1.895,-0.566,-0.063
4/28/2023 17:43:21.710,-1.91,-0.742,-0.145
4/28/2023 17:43:21.720,-1.922,-0.898,-0.199
4/28/2023 17:43:21.730,-2.086,-1.059,-0.137
4/28/2023 17:43:21.740,-2.453,-1.164,-0.105
4/28/2023 17:43:21.750,-2.547,-1.188,-0.207
4/28/2023 17:43:21.760,-2.449,-1.578,-0.309
4/28/2023 17:43:21.770,-2.434,-1.488,-0.195
4/28/2023 17:43:21.780,-2.113,-1.543,-0.242
4/28/2023 17:43:21.790,-1.574,-1.75,-0.219
4/28/2023 17:43:21.800,-1.367,-1.266,-0.574
4/28/2023 17:43:21.810,-1.359,-0.238,-0.988
4/28/2023 17:43:21.820,-1.996,-0.043,-0.992
4/28/2023 17:43:21.830,-1.816,-0.398,-0.555
4/28/2023 17:43:21.840,-1.301,-0.742,-0.168
4/28/2023 17:43:21.850,-0.953,-0.918,0.098
4/28/2023 17:43:21.860,-0.707,-0.742,0.164
4/28/2023 17:43:21.870,-0.555,-0.527,0.168
4/28/2023 17:43:21.880,-0.441,-0.441,0.102
4/28/2023 17:43:21.890,-0.379,-0.434,0.129
4/28/2023 17:43:21.900,-0.402,-0.32,0.145
4/28/2023 17:43:21.910,-0.434,-0.086,0.152
4/28/2023 17:43:21.920,-0.449,-0.051,0.176
4/28/2023 17:43:21.930,-0.449,-0.211,0.184
4/28/2023 17:43:21.940,-0.488,-0.324,0.168
4/28/2023 17:43:21.950,-0.566,-0.305,0.121
4/28/2023 17:43:21.960,-0.629,-0.262,0.07
4/28/2023 17:43:21.970,-0.699,-0.254,0.016
4/28/2023 17:43:21.980,-0.777,-0.25,0
4/28/2023 17:43:21.990,-0.887,-0.25,0.027
4/28/2023 17:43:22.000,-1.027,-0.254,0.055
4/28/2023 17:43:22.010,-1.172,-0.254,0.059
4/28/2023 17:43:22.020,-1.313,-0.281,0.047
4/28/2023 17:43:22.030,-1.48,-0.27,0.027
4/28/2023 17:43:22.040,-1.711,-0.117,-0.094
4/28/2023 17:43:22.050,-1.961,0.211,-0.215
4/28/2023 17:43:22.060,-2.16,0.363,-0.305
4/28/2023 17:43:22.070,-2.281,0.371,-0.313
4/28/2023 17:43:22.080,-2.496,0.406,-0.449
4/28/2023 17:43:22.090,-2.828,0.57,-0.641
4/28/2023 17:43:22.100,-3.02,0.895,-0.813
4/28/2023 17:43:22.110,-2.93,1.313,-0.992
4/28/2023 17:43:22.120,-2.551,1.605,-1.082
4/28/2023 17:43:22.130,-2.125,2.008,-1.176
4/28/2023 17:43:22.140,-1.961,2.457,-1.23
4/28/2023 17:43:22.150,-1.805,2.902,-1.273
4/28/2023 17:43:22.160,-1.555,2.598,-1.176
4/28/2023 17:43:22.170,-1.418,2.426,-1.117
4/28/2023 17:43:22.180,-1.508,2.215,-0.926
4/28/2023 17:43:22.190,-1.711,1.07,-0.316
4/28/2023 17:43:22.200,-1.879,-2.098,1.035
4/28/2023 17:43:22.210,-1.242,-2.016,0.594
4/28/2023 17:43:22.220,-1.398,0.574,-0.496
4/28/2023 17:43:22.230,-3.133,1.129,-1.043
4/28/2023 17:43:22.240,-2.801,1.16,-0.605
4/28/2023 17:43:22.250,-1.461,0.527,-0.387
4/28/2023 17:43:22.260,-1.063,-0.098,-0.449
4/28/2023 17:43:22.270,-0.887,-0.152,-0.48
4/28/2023 17:43:22.280,-0.676,0.129,-0.969
4/28/2023 17:43:22.290,-1.238,0.445,-0.629
4/28/2023 17:43:22.300,-1.066,0.426,-0.469
4/28/2023 17:43:22.310,-1.02,0.152,-0.398
4/28/2023 17:43:22.320,-1.012,0.148,-0.254
4/28/2023 17:43:22.330,-1.016,0.172,-0.148
4/28/2023 17:43:22.340,-1.066,0.129,-0.129
4/28/2023 17:43:22.350,-1.07,0.031,-0.172
4/28/2023 17:43:22.360,-1.059,-0.098,-0.23
4/28/2023 17:43:22.370,-1.051,-0.078,-0.238
4/28/2023 17:43:22.380,-1.043,-0.121,-0.25
4/28/2023 17:43:22.390,-1.016,-0.109,-0.285
4/28/2023 17:43:22.400,-1.016,-0.055,-0.324
4/28/2023 17:43:22.410,-0.996,-0.047,-0.352
4/28/2023 17:43:22.420,-0.961,-0.051,-0.359
4/28/2023 17:43:22.430,-0.938,-0.066,-0.371
4/28/2023 17:43:22.440,-0.949,-0.078,-0.371
4/28/2023 17:43:22.450,-0.938,-0.082,-0.328
4/28/2023 17:43:22.460,-0.949,-0.156,-0.305
4/28/2023 17:43:22.470,-0.945,-0.113,-0.328
4/28/2023 17:43:22.480,-0.941,-0.055,-0.395
4/28/2023 17:43:22.490,-0.953,0,-0.418
4/28/2023 17:43:22.500,-1.027,0.063,-0.363
4/28/2023 17:43:22.510,-1.113,-0.016,-0.328
4/28/2023 17:43:22.520,-1.098,-0.141,-0.297
4/28/2023 17:43:22.530,-1.07,-0.18,-0.227
4/28/2023 17:43:22.540,-1.129,-0.156,-0.18
4/28/2023 17:43:22.550,-1.18,-0.152,-0.148
4/28/2023 17:43:22.560,-1.242,-0.172,-0.152
4/28/2023 17:43:22.570,-1.316,-0.203,-0.172
4/28/2023 17:43:22.580,-1.391,-0.184,-0.168
4/28/2023 17:43:22.590,-1.469,-0.195,-0.117
4/28/2023 17:43:22.600,-1.574,-0.242,-0.07
4/28/2023 17:43:22.610,-1.668,-0.293,-0.074
4/28/2023 17:43:22.620,-1.75,-0.414,-0.121
4/28/2023 17:43:22.630,-1.82,-0.531,-0.188
4/28/2023 17:43:22.640,-1.883,-0.645,-0.25
4/28/2023 17:43:22.650,-1.934,-0.777,-0.293
4/28/2023 17:43:22.660,-2.039,-1.008,-0.254
4/28/2023 17:43:22.670,-2.348,-1.133,-0.137
4/28/2023 17:43:22.680,-2.637,-1.34,-0.152
4/28/2023 17:43:22.690,-2.645,-1.473,-0.246
4/28/2023 17:43:22.700,-2.578,-1.578,-0.301
4/28/2023 17:43:22.710,-2.348,-1.391,-0.184
4/28/2023 17:43:22.720,-1.926,-1.406,-0.188
4/28/2023 17:43:22.730,-1.52,-1.969,-0.055
4/28/2023 17:43:22.740,-1.266,-1.281,-0.566
4/28/2023 17:43:22.750,-1.309,0.035,-0.969
4/28/2023 17:43:22.760,-2.152,0.383,-0.805
4/28/2023 17:43:22.770,-2.027,-0.102,-0.199
4/28/2023 17:43:22.780,-1.301,-0.672,0.219
4/28/2023 17:43:22.790,-0.82,-1.055,0.25
4/28/2023 17:43:22.800,-0.652,-0.988,0.223
4/28/2023 17:43:22.810,-0.422,-0.773,0.129
4/28/2023 17:43:22.820,-0.215,-0.633,-0.02
4/28/2023 17:43:22.830,-0.227,-0.516,-0.07
4/28/2023 17:43:22.840,-0.391,-0.375,0
4/28/2023 17:43:22.850,-0.422,-0.273,0.109
4/28/2023 17:43:22.860,-0.375,-0.297,0.172
4/28/2023 17:43:22.870,-0.395,-0.344,0.129
4/28/2023 17:43:22.880,-0.523,-0.359,0.094
4/28/2023 17:43:22.890,-0.672,-0.32,0.059
4/28/2023 17:43:22.900,-0.762,-0.281,0.047
4/28/2023 17:43:22.910,-0.82,-0.262,-0.004
4/28/2023 17:43:22.920,-0.895,-0.246,-0.051
4/28/2023 17:43:22.930,-1.004,-0.23,-0.102
4/28/2023 17:43:22.940,-1.137,-0.227,-0.152
4/28/2023 17:43:22.950,-1.277,-0.266,-0.191
4/28/2023 17:43:22.960,-1.441,-0.273,-0.23
4/28/2023 17:43:22.970,-1.633,-0.246,-0.285
4/28/2023 17:43:22.980,-1.902,-0.129,-0.383
4/28/2023 17:43:22.990,-2.145,-0.027,-0.484
4/28/2023 17:43:23.000,-2.363,0.203,-0.488
4/28/2023 17:43:23.010,-2.52,0.488,-0.473
4/28/2023 17:43:23.020,-2.625,0.703,-0.492
4/28/2023 17:43:23.030,-2.727,0.988,-0.473
4/28/2023 17:43:23.040,-2.914,1.25,-0.613
4/28/2023 17:43:23.050,-2.633,1.582,-0.805
4/28/2023 17:43:23.060,-2.398,1.668,-1.215
4/28/2023 17:43:23.070,-2.039,2.172,-1.48
4/28/2023 17:43:23.080,-1.688,2.785,-1.508
4/28/2023 17:43:23.090,-1.449,2.898,-1.363
4/28/2023 17:43:23.100,-1.367,2.688,-1.316
4/28/2023 17:43:23.110,-1.605,2.168,-1.148
4/28/2023 17:43:23.120,-1.957,0.566,-0.125
4/28/2023 17:43:23.130,-2.207,-1.906,0.605
4/28/2023 17:43:23.140,-1.57,-0.438,-0.363
4/28/2023 17:43:23.150,-2.336,0.844,-0.594
4/28/2023 17:43:23.160,-3.047,0.98,-0.793
4/28/2023 17:43:23.170,-1.996,0.68,-0.293
4/28/2023 17:43:23.180,-1.129,-0.016,-0.313
4/28/2023 17:43:23.190,-0.699,-0.223,-0.527
4/28/2023 17:43:23.200,-0.66,0.078,-0.527
4/28/2023 17:43:23.210,-0.758,0.305,-0.75
4/28/2023 17:43:23.220,-1.277,0.453,-0.578
4/28/2023 17:43:23.230,-1.223,0.418,-0.371
4/28/2023 17:43:23.240,-1.105,0.23,-0.273
4/28/2023 17:43:23.250,-1.063,0.156,-0.156
4/28/2023 17:43:23.260,-1.023,0.098,-0.18
4/28/2023 17:43:23.270,-0.973,0.035,-0.242
4/28/2023 17:43:23.280,-1.004,0.012,-0.195
4/28/2023 17:43:23.290,-1.047,-0.09,-0.148
4/28/2023 17:43:23.300,-1.07,-0.129,-0.195
4/28/2023 17:43:23.310,-1.051,-0.137,-0.273
4/28/2023 17:43:23.320,-1.004,-0.145,-0.332
4/28/2023 17:43:23.330,-0.977,-0.129,-0.387
4/28/2023 17:43:23.340,-0.945,-0.133,-0.414
4/28/2023 17:43:23.350,-0.941,-0.121,-0.406
4/28/2023 17:43:23.360,-0.949,-0.09,-0.371
4/28/2023 17:43:23.370,-0.949,-0.031,-0.344
4/28/2023 17:43:23.380,-0.934,-0.082,-0.266
4/28/2023 17:43:23.390,-0.965,-0.078,-0.23
4/28/2023 17:43:23.400,-0.988,-0.09,-0.234
4/28/2023 17:43:23.410,-0.992,-0.082,-0.25
4/28/2023 17:43:23.420,-1,-0.09,-0.289
4/28/2023 17:43:23.430,-1.008,-0.086,-0.348
4/28/2023 17:43:23.440,-1.008,-0.094,-0.398
4/28/2023 17:43:23.450,-1.039,-0.059,-0.367
4/28/2023 17:43:23.460,-1.078,0.008,-0.277
4/28/2023 17:43:23.470,-1.125,-0.027,-0.242
4/28/2023 17:43:23.480,-1.148,-0.121,-0.188
4/28/2023 17:43:23.490,-1.195,-0.219,-0.156
4/28/2023 17:43:23.500,-1.254,-0.246,-0.215
4/28/2023 17:43:23.510,-1.258,-0.207,-0.262
4/28/2023 17:43:23.520,-1.293,-0.172,-0.254
4/28/2023 17:43:23.530,-1.355,-0.18,-0.184
4/28/2023 17:43:23.540,-1.48,-0.23,-0.125
4/28/2023 17:43:23.550,-1.629,-0.285,-0.063
4/28/2023 17:43:23.560,-1.75,-0.336,-0.031
4/28/2023 17:43:23.570,-1.863,-0.371,-0.008
4/28/2023 17:43:23.580,-1.941,-0.461,-0.039
4/28/2023 17:43:23.590,-2.027,-0.613,-0.137
4/28/2023 17:43:23.600,-2.109,-0.809,-0.09
4/28/2023 17:43:23.610,-2.32,-0.926,0.117
4/28/2023 17:43:23.620,-2.648,-1.09,0.285
4/28/2023 17:43:23.630,-2.73,-1.445,0.203
4/28/2023 17:43:23.640,-2.551,-1.797,-0.043
4/28/2023 17:43:23.650,-2.59,-1.82,-0.207
4/28/2023 17:43:23.660,-2.297,-1.695,-0.184
4/28/2023 17:43:23.670,-1.426,-1.383,-0.203
4/28/2023 17:43:23.680,-0.879,-0.688,-0.66
4/28/2023 17:43:23.690,-1.496,-0.305,-1.133
4/28/2023 17:43:23.700,-2.055,-0.168,-1.023
4/28/2023 17:43:23.710,-1.742,-0.313,-0.535
4/28/2023 17:43:23.720,-1.262,-0.621,-0.188
4/28/2023 17:43:23.730,-0.84,-0.918,-0.047
4/28/2023 17:43:23.740,-0.625,-0.867,0.043
4/28/2023 17:43:23.750,-0.5,-0.688,0.031
4/28/2023 17:43:23.760,-0.434,-0.563,-0.012
4/28/2023 17:43:23.770,-0.383,-0.469,-0.039
4/28/2023 17:43:23.780,-0.328,-0.41,0.016
4/28/2023 17:43:23.790,-0.336,-0.289,0.051
4/28/2023 17:43:23.800,-0.371,-0.25,0.055
4/28/2023 17:43:23.810,-0.422,-0.309,0.043
4/28/2023 17:43:23.820,-0.516,-0.359,0
4/28/2023 17:43:23.830,-0.531,-0.363,-0.055
4/28/2023 17:43:23.840,-0.453,-0.332,-0.063
4/28/2023 17:43:23.850,-0.781,-0.262,-0.184
4/28/2023 17:43:23.860,-0.91,-0.156,-0.223
4/28/2023 17:43:23.870,-0.934,-0.164,-0.27
4/28/2023 17:43:23.880,-1.004,-0.164,-0.297
4/28/2023 17:43:23.890,-1.152,-0.121,-0.305
4/28/2023 17:43:23.900,-1.371,-0.141,-0.273
4/28/2023 17:43:23.910,-1.547,-0.145,-0.234
4/28/2023 17:43:23.920,-1.715,-0.195,-0.195
4/28/2023 17:43:23.930,-1.898,-0.156,-0.242
4/28/2023 17:43:23.940,-2.09,0,-0.383
4/28/2023 17:43:23.950,-2.285,0.328,-0.461
4/28/2023 17:43:23.960,-2.402,0.68,-0.477
4/28/2023 17:43:23.970,-2.469,0.84,-0.461
4/28/2023 17:43:23.980,-2.574,0.953,-0.406
4/28/2023 17:43:23.990,-2.648,1.102,-0.402
4/28/2023 17:43:24.000,-2.5,1.293,-0.609
4/28/2023 17:43:24.010,-2.238,1.57,-0.988
4/28/2023 17:43:24.020,-1.973,2.102,-1.266
4/28/2023 17:43:24.030,-1.586,2.613,-1.215
4/28/2023 17:43:24.040,-1.391,2.637,-1.039
4/28/2023 17:43:24.050,-1.34,2.59,-0.965
4/28/2023 17:43:24.060,-1.59,2.152,-0.836
4/28/2023 17:43:24.070,-1.934,0.961,-0.09
4/28/2023 17:43:24.080,-2.398,-1.914,1.023
4/28/2023 17:43:24.090,-1.645,-0.559,-0.137
4/28/2023 17:43:24.100,-2.504,0.77,-0.66
4/28/2023 17:43:24.110,-3.148,1.02,-0.957
4/28/2023 17:43:24.120,-1.887,0.809,-0.391
4/28/2023 17:43:24.130,-0.902,0.043,-0.371
4/28/2023 17:43:24.140,-0.641,-0.055,-0.488
4/28/2023 17:43:24.150,-0.695,0.281,-0.543
4/28/2023 17:43:24.160,-0.746,0.461,-0.98
4/28/2023 17:43:24.170,-1.383,0.516,-0.531
4/28/2023 17:43:24.180,-1.16,0.363,-0.48
4/28/2023 17:43:24.190,-1.121,0.098,-0.355
4/28/2023 17:43:24.200,-1.039,0.094,-0.262
4/28/2023 17:43:24.210,-1.008,0.086,-0.211
4/28/2023 17:43:24.220,-1.02,0.105,-0.195
4/28/2023 17:43:24.230,-1.051,0.07,-0.207
4/28/2023 17:43:24.240,-1.047,-0.016,-0.223
4/28/2023 17:43:24.250,-1.035,-0.055,-0.219
4/28/2023 17:43:24.260,-1.043,-0.07,-0.219
4/28/2023 17:43:24.270,-1.051,-0.066,-0.246
4/28/2023 17:43:24.280,-1.031,-0.066,-0.297
4/28/2023 17:43:24.290,-0.996,-0.086,-0.336
4/28/2023 17:43:24.300,-0.957,-0.113,-0.344
4/28/2023 17:43:24.310,-0.945,-0.113,-0.324
4/28/2023 17:43:24.320,-0.91,-0.059,-0.273
4/28/2023 17:43:24.330,-0.965,-0.152,-0.242
4/28/2023 17:43:24.340,-0.973,-0.105,-0.254
4/28/2023 17:43:24.350,-0.965,-0.047,-0.285
4/28/2023 17:43:24.360,-0.988,-0.023,-0.289
4/28/2023 17:43:24.370,-1.023,-0.02,-0.316
4/28/2023 17:43:24.380,-1.027,-0.055,-0.359
4/28/2023 17:43:24.390,-1.039,-0.066,-0.355
4/28/2023 17:43:24.400,-1.109,-0.07,-0.324
4/28/2023 17:43:24.410,-1.145,-0.098,-0.27
4/28/2023 17:43:24.420,-1.141,-0.129,-0.23
4/28/2023 17:43:24.430,-1.172,-0.152,-0.199
4/28/2023 17:43:24.440,-1.199,-0.25,-0.195
4/28/2023 17:43:24.450,-1.242,-0.254,-0.215
4/28/2023 17:43:24.460,-1.25,-0.23,-0.238
4/28/2023 17:43:24.470,-1.25,-0.242,-0.234
4/28/2023 17:43:24.480,-1.285,-0.254,-0.188
4/28/2023 17:43:24.490,-1.379,-0.258,-0.137
4/28/2023 17:43:24.500,-1.527,-0.27,-0.094
4/28/2023 17:43:24.510,-1.664,-0.297,-0.082
4/28/2023 17:43:24.520,-1.766,-0.313,-0.086
4/28/2023 17:43:24.530,-1.805,-0.418,-0.074
4/28/2023 17:43:24.540,-1.797,-0.43,-0.098
4/28/2023 17:43:24.550,-1.844,-0.699,-0.145
4/28/2023 17:43:24.560,-1.934,-0.773,-0.078
4/28/2023 17:43:24.570,-2.172,-0.871,0.113
4/28/2023 17:43:24.580,-2.543,-1.004,0.207
4/28/2023 17:43:24.590,-2.559,-1.305,0.109
4/28/2023 17:43:24.600,-2.41,-1.75,-0.098
4/28/2023 17:43:24.610,-2.465,-1.617,-0.16
4/28/2023 17:43:24.620,-2.113,-1.52,-0.203
4/28/2023 17:43:24.630,-1.473,-1.449,-0.238
4/28/2023 17:43:24.640,-0.957,-0.59,-0.605
4/28/2023 17:43:24.650,-1.699,-0.148,-1.098
4/28/2023 17:43:24.660,-2.27,-0.035,-0.992
4/28/2023 17:43:24.670,-1.875,-0.293,-0.559
4/28/2023 17:43:24.680,-1.344,-0.672,-0.18
4/28/2023 17:43:24.690,-1.035,-1.008,-0.027
4/28/2023 17:43:24.700,-0.758,-0.934,0.109
4/28/2023 17:43:24.710,-0.523,-0.773,0.133
4/28/2023 17:43:24.720,-0.379,-0.633,0.051
4/28/2023 17:43:24.730,-0.32,-0.527,0.008
4/28/2023 17:43:24.740,-0.348,-0.406,0.027
4/28/2023 17:43:24.750,-0.336,-0.238,0.07
4/28/2023 17:43:24.760,-0.305,-0.188,0.082
4/28/2023 17:43:24.770,-0.316,-0.254,0.066
4/28/2023 17:43:24.780,-0.383,-0.301,0.016
4/28/2023 17:43:24.790,-0.449,-0.313,-0.035
4/28/2023 17:43:24.800,-0.5,-0.25,-0.082
4/28/2023 17:43:24.810,-0.566,-0.211,-0.113
4/28/2023 17:43:24.820,-0.664,-0.207,-0.129
4/28/2023 17:43:24.830,-0.785,-0.195,-0.133
4/28/2023 17:43:24.840,-0.922,-0.199,-0.152
4/28/2023 17:43:24.850,-1.07,-0.227,-0.148
4/28/2023 17:43:24.860,-1.25,-0.246,-0.168
4/28/2023 17:43:24.870,-1.488,-0.254,-0.184
4/28/2023 17:43:24.880,-1.742,-0.258,-0.223
4/28/2023 17:43:24.890,-1.98,-0.16,-0.273
4/28/2023 17:43:24.900,-2.234,0.008,-0.348
4/28/2023 17:43:24.910,-2.48,0.367,-0.438
4/28/2023 17:43:24.920,-2.668,0.715,-0.531
4/28/2023 17:43:24.930,-2.781,0.906,-0.578
4/28/2023 17:43:24.940,-2.828,1.102,-0.602
4/28/2023 17:43:24.950,-2.734,1.367,-0.723
4/28/2023 17:43:24.960,-2.488,1.652,-1.023
4/28/2023 17:43:24.970,-2.199,2.027,-1.324
4/28/2023 17:43:24.980,-1.922,2.57,-1.469
4/28/2023 17:43:24.990,-1.625,2.871,-1.371
4/28/2023 17:43:25.000,-1.523,2.801,-1.227
4/28/2023 17:43:25.010,-1.59,2.801,-1.23
4/28/2023 17:43:25.020,-1.746,2.23,-1.086
4/28/2023 17:43:25.030,-2.109,-0.457,0.449
4/28/2023 17:43:25.040,-1.734,-3.512,1.594
4/28/2023 17:43:25.050,-1.082,-0.941,0.75
4/28/2023 17:43:25.060,-2.004,0.723,-0.328
4/28/2023 17:43:25.070,-3.109,1.008,-0.715
4/28/2023 17:43:25.080,-2.191,0.895,-0.344
4/28/2023 17:43:25.090,-1.238,0.281,-0.406
4/28/2023 17:43:25.100,-1.168,-0.09,-0.598
4/28/2023 17:43:25.110,-0.852,-0.086,-0.582
4/28/2023 17:43:25.120,-0.559,0.063,-0.82
4/28/2023 17:43:25.130,-0.957,0.297,-0.723
4/28/2023 17:43:25.140,-1.238,0.449,-0.438
4/28/2023 17:43:25.150,-1.102,0.23,-0.367
4/28/2023 17:43:25.160,-1.094,0.125,-0.211
4/28/2023 17:43:25.170,-1.047,0.059,-0.133
4/28/2023 17:43:25.180,-1.008,-0.031,-0.137
4/28/2023 17:43:25.190,-1.023,-0.004,-0.141
4/28/2023 17:43:25.200,-1.043,0.008,-0.129
4/28/2023 17:43:25.210,-1.02,0.004,-0.16
4/28/2023 17:43:25.220,-0.992,0,-0.215
4/28/2023 17:43:25.230,-0.992,0.027,-0.277
4/28/2023 17:43:25.240,-1,0.043,-0.316
4/28/2023 17:43:25.250,-1.008,0.008,-0.324
4/28/2023 17:43:25.260,-1.004,-0.082,-0.293
4/28/2023 17:43:25.270,-1,-0.066,-0.219
4/28/2023 17:43:25.280,-1.004,-0.094,-0.172
4/28/2023 17:43:25.290,-0.992,-0.078,-0.172
4/28/2023 17:43:25.300,-0.984,-0.043,-0.164
4/28/2023 17:43:25.310,-0.996,-0.031,-0.16
4/28/2023 17:43:25.320,-1.023,-0.059,-0.211
4/28/2023 17:43:25.330,-1.031,-0.074,-0.297
4/28/2023 17:43:25.340,-1.02,-0.105,-0.383
4/28/2023 17:43:25.350,-1.031,-0.145,-0.426
4/28/2023 17:43:25.360,-1.039,-0.141,-0.445
4/28/2023 17:43:25.370,-1.047,-0.141,-0.426
4/28/2023 17:43:25.380,-1.078,-0.172,-0.367
4/28/2023 17:43:25.390,-1.188,-0.133,-0.273
4/28/2023 17:43:25.400,-1.242,-0.148,-0.199
4/28/2023 17:43:25.410,-1.313,-0.129,-0.109
4/28/2023 17:43:25.420,-1.395,-0.145,-0.031
4/28/2023 17:43:25.430,-1.5,-0.148,0.035
4/28/2023 17:43:25.440,-1.598,-0.164,0.051
4/28/2023 17:43:25.450,-1.672,-0.238,0.012
4/28/2023 17:43:25.460,-1.742,-0.266,-0.063
4/28/2023 17:43:25.470,-1.824,-0.336,-0.117
4/28/2023 17:43:25.480,-1.91,-0.449,-0.176
4/28/2023 17:43:25.490,-2.008,-0.621,-0.223
4/28/2023 17:43:25.500,-2.102,-0.82,-0.266
4/28/2023 17:43:25.510,-2.262,-1.051,-0.207
4/28/2023 17:43:25.520,-2.582,-1.188,-0.133
4/28/2023 17:43:25.530,-2.707,-1.387,-0.199
4/28/2023 17:43:25.540,-2.617,-1.563,-0.227
4/28/2023 17:43:25.550,-2.438,-1.434,-0.172
4/28/2023 17:43:25.560,-2.059,-1.535,-0.23
4/28/2023 17:43:25.570,-1.523,-1.746,-0.203
4/28/2023 17:43:25.580,-1.262,-1.25,-0.504
4/28/2023 17:43:25.590,-1.426,-0.277,-1.039
4/28/2023 17:43:25.600,-1.875,-0.031,-0.871
4/28/2023 17:43:25.610,-1.602,-0.629,-0.34
4/28/2023 17:43:25.620,-1.082,-1.027,0.008
4/28/2023 17:43:25.630,-0.715,-0.953,0.191
4/28/2023 17:43:25.640,-0.563,-0.801,0.238
4/28/2023 17:43:25.650,-0.5,-0.652,0.184
4/28/2023 17:43:25.660,-0.441,-0.512,0.105
4/28/2023 17:43:25.670,-0.445,-0.355,0.098
4/28/2023 17:43:25.680,-0.48,-0.23,0.109
4/28/2023 17:43:25.690,-0.492,-0.199,0.141
4/28/2023 17:43:25.700,-0.484,-0.27,0.172
4/28/2023 17:43:25.710,-0.504,-0.348,0.188
4/28/2023 17:43:25.720,-0.582,-0.367,0.16
4/28/2023 17:43:25.730,-0.66,-0.332,0.09
4/28/2023 17:43:25.740,-0.742,-0.266,0.043
4/28/2023 17:43:25.750,-0.832,-0.215,0.012
4/28/2023 17:43:25.760,-0.934,-0.211,0.02
4/28/2023 17:43:25.770,-1.031,-0.25,0.039
4/28/2023 17:43:25.780,-1.152,-0.277,0.027
4/28/2023 17:43:25.790,-1.313,-0.285,0.008
4/28/2023 17:43:25.800,-1.516,-0.309,-0.023
4/28/2023 17:43:25.810,-1.746,-0.281,-0.051
4/28/2023 17:43:25.820,-1.988,-0.137,-0.129
4/28/2023 17:43:25.830,-2.172,0.066,-0.227
4/28/2023 17:43:25.840,-2.402,0.281,-0.355
4/28/2023 17:43:25.850,-2.516,0.469,-0.473
4/28/2023 17:43:25.860,-2.586,0.672,-0.609
4/28/2023 17:43:25.870,-2.688,0.93,-0.73
4/28/2023 17:43:25.880,-2.777,1.223,-0.801
4/28/2023 17:43:25.890,-2.652,1.555,-0.824
4/28/2023 17:43:25.900,-2.344,1.816,-0.938
4/28/2023 17:43:25.910,-2.117,2.211,-1.133
4/28/2023 17:43:25.920,-1.879,2.695,-1.32
4/28/2023 17:43:25.930,-1.566,2.848,-1.27
4/28/2023 17:43:25.940,-1.492,3.008,-1.176
4/28/2023 17:43:25.950,-1.578,2.715,-1.051
4/28/2023 17:43:25.960,-1.848,1.238,-0.359
4/28/2023 17:43:25.970,-2.348,-2.305,1.043
4/28/2023 17:43:25.980,-1.395,-1.258,0.355
4/28/2023 17:43:25.990,-1.82,0.535,-0.328
4/28/2023 17:43:26.000,-2.984,0.91,-0.758
4/28/2023 17:43:26.010,-2.316,0.988,-0.418
4/28/2023 17:43:26.020,-1.609,0.613,-0.363
4/28/2023 17:43:26.030,-1.238,-0.02,-0.543
4/28/2023 17:43:26.040,-0.723,-0.059,-0.98
4/28/2023 17:43:26.050,-1.008,0.332,-0.637
4/28/2023 17:43:26.060,-0.891,0.414,-0.527
4/28/2023 17:43:26.070,-0.934,0.105,-0.547
4/28/2023 17:43:26.080,-1.004,0.109,-0.426
4/28/2023 17:43:26.090,-0.965,0.039,-0.32
4/28/2023 17:43:26.100,-0.984,-0.035,-0.27
4/28/2023 17:43:26.110,-1,-0.035,-0.258
4/28/2023 17:43:26.120,-1.016,-0.051,-0.266
4/28/2023 17:43:26.130,-1.031,-0.043,-0.215
4/28/2023 17:43:26.140,-1.039,-0.027,-0.152
4/28/2023 17:43:26.150,-1.035,0,-0.148
4/28/2023 17:43:26.160,-1.027,0.031,-0.191
4/28/2023 17:43:26.170,-1.02,0.035,-0.234
4/28/2023 17:43:26.180,-1.016,0.023,-0.246
4/28/2023 17:43:26.190,-1.012,-0.008,-0.23
4/28/2023 17:43:26.200,-1.008,-0.008,-0.223
4/28/2023 17:43:26.210,-0.988,-0.117,-0.184
4/28/2023 17:43:26.220,-0.977,-0.184,-0.172
4/28/2023 17:43:26.230,-0.965,-0.172,-0.191
4/28/2023 17:43:26.240,-0.977,-0.137,-0.23
4/28/2023 17:43:26.250,-1.008,-0.023,-0.289
4/28/2023 17:43:26.260,-1.008,0.02,-0.336
4/28/2023 17:43:26.270,-1.016,-0.063,-0.367
4/28/2023 17:43:26.280,-1.012,-0.094,-0.391
4/28/2023 17:43:26.290,-1.012,-0.082,-0.375
4/28/2023 17:43:26.300,-1.012,-0.156,-0.348
4/28/2023 17:43:26.310,-1.035,-0.137,-0.297
4/28/2023 17:43:26.320,-1.109,-0.164,-0.199
4/28/2023 17:43:26.330,-1.191,-0.184,-0.164
4/28/2023 17:43:26.340,-1.285,-0.176,-0.168
4/28/2023 17:43:26.350,-1.375,-0.172,-0.117
4/28/2023 17:43:26.360,-1.449,-0.156,-0.074
4/28/2023 17:43:26.370,-1.551,-0.199,-0.055
4/28/2023 17:43:26.380,-1.637,-0.285,-0.027
4/28/2023 17:43:26.390,-1.676,-0.18,-0.055
4/28/2023 17:43:26.400,-1.734,-0.281,-0.133
4/28/2023 17:43:26.410,-1.773,-0.441,-0.223
4/28/2023 17:43:26.420,-1.926,-0.523,-0.336
4/28/2023 17:43:26.430,-1.957,-0.684,-0.402
4/28/2023 17:43:26.440,-2.07,-0.875,-0.367
4/28/2023 17:43:26.450,-2.355,-1.035,-0.227
4/28/2023 17:43:26.460,-2.727,-1.18,-0.141
4/28/2023 17:43:26.470,-2.699,-1.492,-0.219
4/28/2023 17:43:26.480,-2.523,-1.773,-0.234
4/28/2023 17:43:26.490,-2.473,-1.496,-0.16
4/28/2023 17:43:26.500,-2.07,-1.477,-0.086
4/28/2023 17:43:26.510,-1.344,-1.59,0.004
4/28/2023 17:43:26.520,-0.969,-1.047,-0.527
4/28/2023 17:43:26.530,-1.438,-0.133,-1.313
4/28/2023 17:43:26.540,-2.191,-0.074,-1.086
4/28/2023 17:43:26.550,-1.672,-0.727,-0.438
4/28/2023 17:43:26.560,-1.059,-1.078,0.023
4/28/2023 17:43:26.570,-0.684,-1.094,0.289
4/28/2023 17:43:26.580,-0.496,-0.895,0.336
4/28/2023 17:43:26.590,-0.461,-0.652,0.227
4/28/2023 17:43:26.600,-0.461,-0.484,0.133
4/28/2023 17:43:26.610,-0.496,-0.355,0.16
4/28/2023 17:43:26.620,-0.547,-0.27,0.227
4/28/2023 17:43:26.630,-0.551,-0.23,0.254
4/28/2023 17:43:26.640,-0.555,-0.313,0.25
4/28/2023 17:43:26.650,-0.613,-0.387,0.219
4/28/2023 17:43:26.660,-0.699,-0.379,0.176
4/28/2023 17:43:26.670,-0.773,-0.34,0.121
4/28/2023 17:43:26.680,-0.844,-0.301,0.07
4/28/2023 17:43:26.690,-0.902,-0.246,0.027
4/28/2023 17:43:26.700,-0.969,-0.23,-0.012
4/28/2023 17:43:26.710,-1.051,-0.227,-0.051
4/28/2023 17:43:26.720,-1.152,-0.23,-0.086
4/28/2023 17:43:26.730,-1.281,-0.227,-0.105
4/28/2023 17:43:26.740,-1.445,-0.238,-0.148
4/28/2023 17:43:26.750,-1.605,-0.211,-0.199
4/28/2023 17:43:26.760,-1.867,-0.094,-0.297
4/28/2023 17:43:26.770,-2.172,0.074,-0.379
4/28/2023 17:43:26.780,-2.465,0.254,-0.48
4/28/2023 17:43:26.790,-2.621,0.523,-0.648
4/28/2023 17:43:26.800,-2.688,0.785,-0.871
4/28/2023 17:43:26.810,-2.715,1.074,-1.051
4/28/2023 17:43:26.820,-2.727,1.414,-1.156
4/28/2023 17:43:26.830,-2.598,1.742,-1.266
4/28/2023 17:43:26.840,-2.305,2.105,-1.359
4/28/2023 17:43:26.850,-2.07,2.547,-1.484
4/28/2023 17:43:26.860,-1.719,2.789,-1.453
4/28/2023 17:43:26.870,-1.461,2.836,-1.406
4/28/2023 17:43:26.880,-1.379,2.672,-1.293
4/28/2023 17:43:26.890,-1.469,2.254,-1.059
4/28/2023 17:43:26.900,-1.953,0.262,-0.016
4/28/2023 17:43:26.910,-2.098,-3.211,1.57
4/28/2023 17:43:26.920,-1.203,-1.145,0.754
4/28/2023 17:43:26.930,-1.684,1.004,-0.344
4/28/2023 17:43:26.940,-3.148,1.145,-0.953
4/28/2023 17:43:26.950,-2.516,0.922,-0.445
4/28/2023 17:43:26.960,-1.422,0.48,-0.367
4/28/2023 17:43:26.970,-1.133,-0.086,-0.566
4/28/2023 17:43:26.980,-0.805,-0.129,-0.527
4/28/2023 17:43:26.990,-0.699,0.219,-1.047
4/28/2023 17:43:27.000,-1.297,0.566,-0.609
4/28/2023 17:43:27.010,-1.004,0.391,-0.535
4/28/2023 17:43:27.020,-1.031,0.156,-0.41
4/28/2023 17:43:27.030,-1.02,0.148,-0.293
4/28/2023 17:43:27.040,-1.016,0.043,-0.242
4/28/2023 17:43:27.050,-0.977,0.02,-0.211
4/28/2023 17:43:27.060,-0.996,0.008,-0.191
4/28/2023 17:43:27.070,-1.047,-0.074,-0.145
4/28/2023 17:43:27.080,-1.074,-0.094,-0.109
4/28/2023 17:43:27.090,-1.063,-0.113,-0.137
4/28/2023 17:43:27.100,-1.051,-0.066,-0.215
4/28/2023 17:43:27.110,-1.027,-0.023,-0.289
4/28/2023 17:43:27.120,-0.969,-0.047,-0.352
4/28/2023 17:43:27.130,-0.93,-0.063,-0.336
4/28/2023 17:43:27.140,-0.957,-0.066,-0.285
4/28/2023 17:43:27.150,-0.961,0,-0.27
4/28/2023 17:43:27.160,-0.945,-0.086,-0.211
4/28/2023 17:43:27.170,-0.973,-0.152,-0.152
4/28/2023 17:43:27.180,-1.012,-0.102,-0.152
4/28/2023 17:43:27.190,-1,-0.07,-0.207
4/28/2023 17:43:27.200,-0.992,-0.07,-0.254
4/28/2023 17:43:27.210,-0.977,0.008,-0.293
4/28/2023 17:43:27.220,-1,0.004,-0.336
4/28/2023 17:43:27.230,-1.02,-0.059,-0.352
4/28/2023 17:43:27.240,-1.027,-0.129,-0.352
4/28/2023 17:43:27.250,-1.082,-0.078,-0.332
4/28/2023 17:43:27.260,-1.09,-0.141,-0.273
4/28/2023 17:43:27.270,-1.129,-0.16,-0.223
4/28/2023 17:43:27.280,-1.184,-0.191,-0.203
4/28/2023 17:43:27.290,-1.277,-0.18,-0.195
4/28/2023 17:43:27.300,-1.379,-0.109,-0.188
4/28/2023 17:43:27.310,-1.469,-0.102,-0.172
4/28/2023 17:43:27.320,-1.559,-0.105,-0.145
4/28/2023 17:43:27.330,-1.625,-0.121,-0.125
4/28/2023 17:43:27.340,-1.68,-0.168,-0.145
4/28/2023 17:43:27.350,-1.82,-0.309,-0.184
4/28/2023 17:43:27.360,-1.906,-0.418,-0.215
4/28/2023 17:43:27.370,-1.996,-0.535,-0.316
4/28/2023 17:43:27.380,-2.066,-0.84,-0.348
4/28/2023 17:43:27.390,-2.137,-0.918,-0.215
4/28/2023 17:43:27.400,-2.672,-1.156,-0.152
4/28/2023 17:43:27.410,-2.723,-1.418,-0.117
4/28/2023 17:43:27.420,-2.59,-1.59,-0.266
4/28/2023 17:43:27.430,-2.629,-1.559,-0.176
4/28/2023 17:43:27.440,-2.32,-1.281,-0.086
4/28/2023 17:43:27.450,-1.605,-1.473,-0.016
4/28/2023 17:43:27.460,-1.223,-1.461,-0.191
4/28/2023 17:43:27.470,-1.273,-0.516,-1.035
4/28/2023 17:43:27.480,-1.988,-0.051,-1.094
4/28/2023 17:43:27.490,-1.879,-0.582,-0.57
4/28/2023 17:43:27.500,-1.246,-0.992,-0.109
4/28/2023 17:43:27.510,-0.855,-1.09,0.16
4/28/2023 17:43:27.520,-0.613,-0.926,0.277
4/28/2023 17:43:27.530,-0.539,-0.727,0.254
4/28/2023 17:43:27.540,-0.488,-0.543,0.191
4/28/2023 17:43:27.550,-0.473,-0.426,0.164
4/28/2023 17:43:27.560,-0.512,-0.328,0.18
4/28/2023 17:43:27.570,-0.504,-0.242,0.211
4/28/2023 17:43:27.580,-0.492,-0.219,0.215
4/28/2023 17:43:27.590,-0.535,-0.262,0.215
4/28/2023 17:43:27.600,-0.641,-0.285,0.176
4/28/2023 17:43:27.610,-0.746,-0.262,0.137
4/28/2023 17:43:27.620,-0.789,-0.289,0.066
4/28/2023 17:43:27.630,-0.84,-0.281,0
4/28/2023 17:43:27.640,-0.914,-0.23,-0.027
4/28/2023 17:43:27.650,-1.055,-0.188,-0.02
4/28/2023 17:43:27.660,-1.211,-0.148,-0.016
4/28/2023 17:43:27.670,-1.352,-0.129,0.012
4/28/2023 17:43:27.680,-1.523,-0.125,0.012
