------------ Data File Created By ActiGraph GT3X+ ActiLife v6.13.4 Firmware v1.7.2 date format M/d/yyyy at 100 Hz  Filter Normal -----------
Serial Number: TAS1H34200054
Start Time 17:43:00
Start Date 4/28/2023
Epoch Period (hh:mm:ss) 00:00:00
Download Time 17:57:31
Download Date 4/28/2023
Current Memory Address: 0
Current Battery Voltage: 4.19     Mode = 12
--------------------------------------------------
Timestamp,Accelerometer X,Accelerometer Y,Accelerometer Z
4/28/2023 17:43:00.000,-0.195,-1.023,-0.156
4/28/2023 17:43:00.010,-0.191,-1.027,-0.145
4/28/2023 17:43:00.020,-0.203,-1.027,-0.152
4/28/2023 17:43:00.030,-0.211,-1.031,-0.148
4/28/2023 17:43:00.040,-0.219,-1.031,-0.145
4/28/2023 17:43:00.050,-0.184,-1.008,-0.125
4/28/2023 17:43:00.060,-0.176,-1.012,-0.137
4/28/2023 17:43:00.070,-0.16,-1,-0.141
4/28/2023 17:43:00.080,-0.16,-1.004,-0.148
4/28/2023 17:43:00.090,-0.16,-1.016,-0.145
4/28/2023 17:43:00.100,-0.191,-1.035,-0.168
4/28/2023 17:43:00.110,-0.203,-1.039,-0.18
4/28/2023 17:43:00.120,-0.191,-1.023,-0.168
4/28/2023 17:43:00.130,-0.164,-1.02,-0.156
4/28/2023 17:43:00.140,-0.133,-1.004,-0.137
4/28/2023 17:43:00.150,-0.129,-1.016,-0.133
4/28/2023 17:43:00.160,-0.137,-1.02,-0.137
4/28/2023 17:43:00.170,-0.125,-1.016,-0.125
4/28/2023 17:43:00.180,-0.113,-1.02,-0.109
4/28/2023 17:43:00.190,-0.129,-1.027,-0.113
4/28/2023 17:43:00.200,-0.148,-1.031,-0.125
4/28/2023 17:43:00.210,-0.148,-1.02,-0.121
4/28/2023 17:43:00.220,-0.145,-1.016,-0.125
4/28/2023 17:43:00.230,-0.137,-1.02,-0.121
4/28/2023 17:43:00.240,-0.137,-1.02,-0.125
4/28/2023 17:43:00.250,-0.133,-1.023,-0.133
4/28/2023 17:43:00.260,-0.133,-1.023,-0.133
4/28/2023 17:43:00.270,-0.133,-1.023,-0.129
4/28/2023 17:43:00.280,-0.145,-1.023,-0.121
4/28/2023 17:43:00.290,-0.152,-1.023,-0.125
4/28/2023 17:43:00.300,-0.148,-1.023,-0.117
4/28/2023 17:43:00.310,-0.156,-1.02,-0.113
4/28/2023 17:43:00.320,-0.16,-1.016,-0.121
4/28/2023 17:43:00.330,-0.156,-1.02,-0.129
4/28/2023 17:43:00.340,-0.156,-1.016,-0.137
4/28/2023 17:43:00.350,-0.16,-1.02,-0.137
4/28/2023 17:43:00.360,-0.168,-1.023,-0.137
4/28/2023 17:43:00.370,-0.172,-1.023,-0.137
4/28/2023 17:43:00.380,-0.172,-1.02,-0.125
4/28/2023 17:43:00.390,-0.172,-1.016,-0.133
4/28/2023 17:43:00.400,-0.172,-1.012,-0.133
4/28/2023 17:43:00.410,-0.172,-1.016,-0.137
4/28/2023 17:43:00.420,-0.168,-1.012,-0.137
4/28/2023 17:43:00.430,-0.168,-1.012,-0.141
4/28/2023 17:43:00.440,-0.164,-1.012,-0.141
4/28/2023 17:43:00.450,-0.156,-1.02,-0.145
4/28/2023 17:43:00.460,-0.152,-1.023,-0.148
4/28/2023 17:43:00.470,-0.148,-1.027,-0.148
4/28/2023 17:43:00.480,-0.145,-1.016,-0.145
4/28/2023 17:43:00.490,-0.16,-1.012,-0.152
4/28/2023 17:43:00.500,-0.176,-1.016,-0.152
4/28/2023 17:43:00.510,-0.172,-1.023,-0.145
4/28/2023 17:43:00.520,-0.172,-1.02,-0.145
4/28/2023 17:43:00.530,-0.176,-1.016,-0.141
4/28/2023 17:43:00.540,-0.168,-1.02,-0.137
4/28/2023 17:43:00.550,-0.16,-1.02,-0.117
4/28/2023 17:43:00.560,-0.148,-1.012,-0.109
4/28/2023 17:43:00.570,-0.133,-1,-0.105
4/28/2023 17:43:00.580,-0.129,-0.992,-0.102
4/28/2023 17:43:00.590,-0.129,-1,-0.105
4/28/2023 17:43:00.600,-0.137,-1.012,-0.113
4/28/2023 17:43:00.610,-0.156,-1.02,-0.121
4/28/2023 17:43:00.620,-0.176,-1.023,-0.133
4/28/2023 17:43:00.630,-0.172,-1.027,-0.121
4/28/2023 17:43:00.640,-0.176,-1.027,-0.121
4/28/2023 17:43:00.650,-0.172,-1.027,-0.121
4/28/2023 17:43:00.660,-0.156,-1.027,-0.121
4/28/2023 17:43:00.670,-0.156,-1.027,-0.129
4/28/2023 17:43:00.680,-0.148,-1.02,-0.121
4/28/2023 17:43:00.690,-0.145,-1.016,-0.109
4/28/2023 17:43:00.700,-0.148,-1.016,-0.105
4/28/2023 17:43:00.710,-0.152,-1.016,-0.102
4/28/2023 17:43:00.720,-0.152,-1.012,-0.102
4/28/2023 17:43:00.730,-0.148,-1.008,-0.102
4/28/2023 17:43:00.740,-0.145,-1.008,-0.102
4/28/2023 17:43:00.750,-0.148,-1.008,-0.105
4/28/2023 17:43:00.760,-0.152,-1.016,-0.102
4/28/2023 17:43:00.770,-0.156,-1.023,-0.102
4/28/2023 17:43:00.780,-0.164,-1.023,-0.105
4/28/2023 17:43:00.790,-0.156,-1.016,-0.102
4/28/2023 17:43:00.800,-0.148,-1.02,-0.098
4/28/2023 17:43:00.810,-0.168,-1.023,-0.109
4/28/2023 17:43:00.820,-0.18,-1.02,-0.113
4/28/2023 17:43:00.830,-0.168,-1.016,-0.098
4/28/2023 17:43:00.840,-0.168,-1.016,-0.094
4/28/2023 17:43:00.850,-0.172,-1.016,-0.105
4/28/2023 17:43:00.860,-0.172,-1.016,-0.102
4/28/2023 17:43:00.870,-0.16,-1.012,-0.102
4/28/2023 17:43:00.880,-0.164,-1.016,-0.109
4/28/2023 17:43:00.890,-0.176,-1.02,-0.125
4/28/2023 17:43:00.900,-0.176,-1.023,-0.137
4/28/2023 17:43:00.910,-0.18,-1.012,-0.137
4/28/2023 17:43:00.920,-0.176,-1.008,-0.129
4/28/2023 17:43:00.930,-0.16,-1.02,-0.113
4/28/2023 17:43:00.940,-0.148,-1.023,-0.113
4/28/2023 17:43:00.950,-0.148,-1.023,-0.109
4/28/2023 17:43:00.960,-0.152,-1.027,-0.102
4/28/2023 17:43:00.970,-0.16,-1.012,-0.102
4/28/2023 17:43:00.980,-0.16,-1.004,-0.098
4/28/2023 17:43:00.990,-0.16,-1.012,-0.07
4/28/2023 17:43:01.000,-0.168,-1.008,-0.051
4/28/2023 17:43:01.010,-0.137,-0.988,-0.023
4/28/2023 17:43:01.020,-0.102,-0.977,-0.016
4/28/2023 17:43:01.030,-0.09,-0.988,-0.035
4/28/2023 17:43:01.040,-0.102,-0.996,-0.063
4/28/2023 17:43:01.050,-0.117,-1.012,-0.086
4/28/2023 17:43:01.060,-0.137,-1.02,-0.102
4/28/2023 17:43:01.070,-0.152,-1.031,-0.109
4/28/2023 17:43:01.080,-0.176,-1.035,-0.117
4/28/2023 17:43:01.090,-0.188,-1.035,-0.113
4/28/2023 17:43:01.100,-0.188,-1.047,-0.105
4/28/2023 17:43:01.110,-0.164,-1.043,-0.102
4/28/2023 17:43:01.120,-0.152,-1.035,-0.105
4/28/2023 17:43:01.130,-0.141,-1.02,-0.109
4/28/2023 17:43:01.140,-0.141,-1.023,-0.117
4/28/2023 17:43:01.150,-0.141,-1.012,-0.129
4/28/2023 17:43:01.160,-0.148,-1,-0.137
4/28/2023 17:43:01.170,-0.145,-1.012,-0.129
4/28/2023 17:43:01.180,-0.152,-1.023,-0.137
4/28/2023 17:43:01.190,-0.152,-1.039,-0.133
4/28/2023 17:43:01.200,-0.156,-1.031,-0.129
4/28/2023 17:43:01.210,-0.156,-0.996,-0.137
4/28/2023 17:43:01.220,-0.164,-0.93,-0.137
4/28/2023 17:43:01.230,-0.191,-1.008,-0.09
4/28/2023 17:43:01.240,-0.207,-1.066,-0.133
4/28/2023 17:43:01.250,-0.215,-1.027,-0.156
4/28/2023 17:43:01.260,-0.207,-1.012,-0.141
4/28/2023 17:43:01.270,-0.203,-1.039,-0.152
4/28/2023 17:43:01.280,-0.195,-1.043,-0.145
4/28/2023 17:43:01.290,-0.191,-1.023,-0.148
4/28/2023 17:43:01.300,-0.191,-1.016,-0.145
4/28/2023 17:43:01.310,-0.195,-1.031,-0.137
4/28/2023 17:43:01.320,-0.195,-1.039,-0.137
4/28/2023 17:43:01.330,-0.184,-1.035,-0.141
4/28/2023 17:43:01.340,-0.156,-1.012,-0.137
4/28/2023 17:43:01.350,-0.141,-0.996,-0.141
4/28/2023 17:43:01.360,-0.145,-1,-0.145
4/28/2023 17:43:01.370,-0.16,-1.012,-0.156
4/28/2023 17:43:01.380,-0.176,-1.02,-0.16
4/28/2023 17:43:01.390,-0.211,-1.016,-0.16
4/28/2023 17:43:01.400,-0.238,-1.016,-0.152
4/28/2023 17:43:01.410,-0.238,-1.012,-0.148
4/28/2023 17:43:01.420,-0.23,-1.008,-0.148
4/28/2023 17:43:01.430,-0.219,-1.004,-0.156
4/28/2023 17:43:01.440,-0.195,-1,-0.156
4/28/2023 17:43:01.450,-0.184,-1.004,-0.16
4/28/2023 17:43:01.460,-0.191,-1.004,-0.168
4/28/2023 17:43:01.470,-0.203,-1,-0.18
4/28/2023 17:43:01.480,-0.219,-1,-0.191
4/28/2023 17:43:01.490,-0.23,-1.012,-0.188
4/28/2023 17:43:01.500,-0.25,-1.012,-0.191
4/28/2023 17:43:01.510,-0.254,-1.02,-0.191
4/28/2023 17:43:01.520,-0.242,-1.012,-0.188
4/28/2023 17:43:01.530,-0.227,-1,-0.188
4/28/2023 17:43:01.540,-0.211,-0.996,-0.188
4/28/2023 17:43:01.550,-0.199,-0.992,-0.176
4/28/2023 17:43:01.560,-0.188,-0.988,-0.176
4/28/2023 17:43:01.570,-0.176,-0.988,-0.168
4/28/2023 17:43:01.580,-0.16,-1.004,-0.16
4/28/2023 17:43:01.590,-0.137,-1.008,-0.137
4/28/2023 17:43:01.600,-0.121,-1,-0.129
4/28/2023 17:43:01.610,-0.102,-0.988,-0.125
4/28/2023 17:43:01.620,-0.086,-0.969,-0.102
4/28/2023 17:43:01.630,-0.078,-0.957,-0.086
4/28/2023 17:43:01.640,-0.074,-0.945,-0.105
4/28/2023 17:43:01.650,-0.07,-0.969,-0.141
4/28/2023 17:43:01.660,-0.09,-1.012,-0.16
4/28/2023 17:43:01.670,-0.133,-1.059,-0.168
4/28/2023 17:43:01.680,-0.191,-1.078,-0.16
4/28/2023 17:43:01.690,-0.234,-1.059,-0.148
4/28/2023 17:43:01.700,-0.258,-1.051,-0.141
4/28/2023 17:43:01.710,-0.273,-1.07,-0.145
4/28/2023 17:43:01.720,-0.273,-1.082,-0.164
4/28/2023 17:43:01.730,-0.238,-1.066,-0.176
4/28/2023 17:43:01.740,-0.176,-1.031,-0.18
4/28/2023 17:43:01.750,-0.121,-1.016,-0.195
4/28/2023 17:43:01.760,-0.09,-1.023,-0.203
4/28/2023 17:43:01.770,-0.09,-1.031,-0.203
4/28/2023 17:43:01.780,-0.105,-1.023,-0.199
4/28/2023 17:43:01.790,-0.125,-1.016,-0.18
4/28/2023 17:43:01.800,-0.152,-0.996,-0.164
4/28/2023 17:43:01.810,-0.164,-0.977,-0.152
4/28/2023 17:43:01.820,-0.164,-0.965,-0.152
4/28/2023 17:43:01.830,-0.16,-0.977,-0.156
4/28/2023 17:43:01.840,-0.168,-0.984,-0.172
4/28/2023 17:43:01.850,-0.172,-0.98,-0.188
4/28/2023 17:43:01.860,-0.176,-0.98,-0.199
4/28/2023 17:43:01.870,-0.184,-0.984,-0.203
4/28/2023 17:43:01.880,-0.215,-0.988,-0.227
4/28/2023 17:43:01.890,-0.234,-1,-0.23
4/28/2023 17:43:01.900,-0.25,-1.016,-0.227
4/28/2023 17:43:01.910,-0.27,-1.023,-0.215
4/28/2023 17:43:01.920,-0.277,-1.023,-0.199
4/28/2023 17:43:01.930,-0.262,-1.012,-0.188
4/28/2023 17:43:01.940,-0.238,-1,-0.176
4/28/2023 17:43:01.950,-0.223,-0.992,-0.172
4/28/2023 17:43:01.960,-0.211,-0.984,-0.176
4/28/2023 17:43:01.970,-0.207,-0.984,-0.191
4/28/2023 17:43:01.980,-0.207,-0.988,-0.199
4/28/2023 17:43:01.990,-0.219,-0.996,-0.207
4/28/2023 17:43:02.000,-0.246,-1.012,-0.203
4/28/2023 17:43:02.010,-0.246,-1.023,-0.188
4/28/2023 17:43:02.020,-0.246,-1.012,-0.188
4/28/2023 17:43:02.030,-0.246,-1.008,-0.184
4/28/2023 17:43:02.040,-0.242,-1.008,-0.18
4/28/2023 17:43:02.050,-0.227,-1,-0.176
4/28/2023 17:43:02.060,-0.211,-0.996,-0.168
4/28/2023 17:43:02.070,-0.191,-1,-0.164
4/28/2023 17:43:02.080,-0.176,-1,-0.172
4/28/2023 17:43:02.090,-0.172,-1.004,-0.176
4/28/2023 17:43:02.100,-0.184,-1.012,-0.184
4/28/2023 17:43:02.110,-0.203,-1.02,-0.195
4/28/2023 17:43:02.120,-0.223,-1.023,-0.188
4/28/2023 17:43:02.130,-0.242,-1.027,-0.18
4/28/2023 17:43:02.140,-0.254,-1.02,-0.176
4/28/2023 17:43:02.150,-0.266,-1.012,-0.176
4/28/2023 17:43:02.160,-0.262,-1.004,-0.176
4/28/2023 17:43:02.170,-0.242,-1.004,-0.164
4/28/2023 17:43:02.180,-0.219,-1,-0.164
4/28/2023 17:43:02.190,-0.203,-0.992,-0.176
4/28/2023 17:43:02.200,-0.199,-0.992,-0.191
4/28/2023 17:43:02.210,-0.207,-0.988,-0.211
4/28/2023 17:43:02.220,-0.219,-0.988,-0.215
4/28/2023 17:43:02.230,-0.25,-0.988,-0.211
4/28/2023 17:43:02.240,-0.273,-0.992,-0.203
4/28/2023 17:43:02.250,-0.293,-0.996,-0.188
4/28/2023 17:43:02.260,-0.301,-0.996,-0.18
4/28/2023 17:43:02.270,-0.316,-0.992,-0.176
4/28/2023 17:43:02.280,-0.305,-0.988,-0.176
4/28/2023 17:43:02.290,-0.277,-0.977,-0.168
4/28/2023 17:43:02.300,-0.25,-0.98,-0.164
4/28/2023 17:43:02.310,-0.23,-0.988,-0.168
4/28/2023 17:43:02.320,-0.223,-1,-0.176
4/28/2023 17:43:02.330,-0.223,-1.004,-0.18
4/28/2023 17:43:02.340,-0.227,-1.016,-0.184
4/28/2023 17:43:02.350,-0.227,-1.027,-0.164
4/28/2023 17:43:02.360,-0.227,-1.023,-0.141
4/28/2023 17:43:02.370,-0.219,-1.004,-0.117
4/28/2023 17:43:02.380,-0.219,-0.992,-0.109
4/28/2023 17:43:02.390,-0.203,-1.004,-0.105
4/28/2023 17:43:02.400,-0.188,-1.016,-0.098
4/28/2023 17:43:02.410,-0.164,-1.016,-0.086
4/28/2023 17:43:02.420,-0.137,-1.004,-0.094
4/28/2023 17:43:02.430,-0.133,-0.977,-0.102
4/28/2023 17:43:02.440,-0.129,-0.961,-0.102
4/28/2023 17:43:02.450,-0.133,-0.957,-0.098
4/28/2023 17:43:02.460,-0.152,-0.965,-0.102
4/28/2023 17:43:02.470,-0.199,-0.984,-0.125
4/28/2023 17:43:02.480,-0.227,-1.008,-0.133
4/28/2023 17:43:02.490,-0.238,-1.02,-0.141
4/28/2023 17:43:02.500,-0.27,-1.035,-0.16
4/28/2023 17:43:02.510,-0.27,-1.035,-0.156
4/28/2023 17:43:02.520,-0.266,-1.027,-0.164
4/28/2023 17:43:02.530,-0.25,-1.02,-0.156
4/28/2023 17:43:02.540,-0.227,-1.02,-0.152
4/28/2023 17:43:02.550,-0.211,-1.02,-0.145
4/28/2023 17:43:02.560,-0.199,-1.02,-0.141
4/28/2023 17:43:02.570,-0.199,-1.016,-0.137
4/28/2023 17:43:02.580,-0.203,-1.02,-0.121
4/28/2023 17:43:02.590,-0.199,-1.004,-0.125
4/28/2023 17:43:02.600,-0.195,-0.996,-0.121
4/28/2023 17:43:02.610,-0.191,-1,-0.129
4/28/2023 17:43:02.620,-0.191,-1,-0.137
4/28/2023 17:43:02.630,-0.199,-0.996,-0.129
4/28/2023 17:43:02.640,-0.195,-0.988,-0.125
4/28/2023 17:43:02.650,-0.191,-0.988,-0.133
4/28/2023 17:43:02.660,-0.199,-1.004,-0.137
4/28/2023 17:43:02.670,-0.199,-1.016,-0.141
4/28/2023 17:43:02.680,-0.195,-1.012,-0.141
4/28/2023 17:43:02.690,-0.207,-1.004,-0.145
4/28/2023 17:43:02.700,-0.219,-1.004,-0.145
4/28/2023 17:43:02.710,-0.227,-1.008,-0.145
4/28/2023 17:43:02.720,-0.234,-1.012,-0.152
4/28/2023 17:43:02.730,-0.227,-1.008,-0.148
4/28/2023 17:43:02.740,-0.219,-1,-0.148
4/28/2023 17:43:02.750,-0.215,-0.996,-0.148
4/28/2023 17:43:02.760,-0.215,-1,-0.148
4/28/2023 17:43:02.770,-0.219,-1.004,-0.152
4/28/2023 17:43:02.780,-0.219,-1.008,-0.148
4/28/2023 17:43:02.790,-0.211,-1.016,-0.141
4/28/2023 17:43:02.800,-0.211,-1.023,-0.141
4/28/2023 17:43:02.810,-0.207,-1.008,-0.141
4/28/2023 17:43:02.820,-0.207,-0.996,-0.141
4/28/2023 17:43:02.830,-0.207,-0.992,-0.141
4/28/2023 17:43:02.840,-0.203,-0.996,-0.156
4/28/2023 17:43:02.850,-0.207,-1.004,-0.168
4/28/2023 17:43:02.860,-0.207,-1.004,-0.168
4/28/2023 17:43:02.870,-0.211,-1,-0.168
4/28/2023 17:43:02.880,-0.223,-1.008,-0.168
4/28/2023 17:43:02.890,-0.23,-1.008,-0.156
4/28/2023 17:43:02.900,-0.223,-0.996,-0.148
4/28/2023 17:43:02.910,-0.23,-0.992,-0.156
4/28/2023 17:43:02.920,-0.23,-1.008,-0.148
4/28/2023 17:43:02.930,-0.219,-1.016,-0.141
4/28/2023 17:43:02.940,-0.211,-1.012,-0.141
4/28/2023 17:43:02.950,-0.203,-1.008,-0.141
4/28/2023 17:43:02.960,-0.195,-1.004,-0.145
4/28/2023 17:43:02.970,-0.195,-1,-0.152
4/28/2023 17:43:02.980,-0.188,-0.996,-0.16
4/28/2023 17:43:02.990,-0.184,-0.98,-0.16
4/28/2023 17:43:03.000,-0.195,-0.969,-0.164
4/28/2023 17:43:03.010,-0.203,-0.973,-0.164
4/28/2023 17:43:03.020,-0.219,-0.988,-0.168
4/28/2023 17:43:03.030,-0.23,-1.004,-0.172
4/28/2023 17:43:03.040,-0.234,-1.012,-0.176
4/28/2023 17:43:03.050,-0.227,-1.012,-0.18
4/28/2023 17:43:03.060,-0.227,-1.016,-0.184
4/28/2023 17:43:03.070,-0.227,-1.023,-0.18
4/28/2023 17:43:03.080,-0.215,-1.023,-0.176
4/28/2023 17:43:03.090,-0.211,-1.012,-0.176
4/28/2023 17:43:03.100,-0.199,-1,-0.176
4/28/2023 17:43:03.110,-0.184,-0.992,-0.176
4/28/2023 17:43:03.120,-0.168,-0.973,-0.176
4/28/2023 17:43:03.130,-0.16,-0.977,-0.168
4/28/2023 17:43:03.140,-0.152,-0.984,-0.156
4/28/2023 17:43:03.150,-0.145,-0.992,-0.152
4/28/2023 17:43:03.160,-0.137,-0.988,-0.16
4/28/2023 17:43:03.170,-0.129,-0.992,-0.168
4/28/2023 17:43:03.180,-0.125,-0.996,-0.168
4/28/2023 17:43:03.190,-0.125,-1,-0.176
4/28/2023 17:43:03.200,-0.133,-1.012,-0.176
4/28/2023 17:43:03.210,-0.137,-1.016,-0.176
4/28/2023 17:43:03.220,-0.16,-1.008,-0.191
4/28/2023 17:43:03.230,-0.188,-1.02,-0.203
4/28/2023 17:43:03.240,-0.207,-1.027,-0.215
4/28/2023 17:43:03.250,-0.215,-1.039,-0.219
4/28/2023 17:43:03.260,-0.191,-1.035,-0.203
4/28/2023 17:43:03.270,-0.168,-1.031,-0.188
4/28/2023 17:43:03.280,-0.148,-1.016,-0.184
4/28/2023 17:43:03.290,-0.109,-1,-0.18
4/28/2023 17:43:03.300,-0.086,-0.996,-0.188
4/28/2023 17:43:03.310,-0.078,-1.008,-0.199
4/28/2023 17:43:03.320,-0.086,-1.012,-0.195
4/28/2023 17:43:03.330,-0.102,-1,-0.191
4/28/2023 17:43:03.340,-0.109,-0.984,-0.188
4/28/2023 17:43:03.350,-0.117,-0.98,-0.18
4/28/2023 17:43:03.360,-0.129,-0.988,-0.184
4/28/2023 17:43:03.370,-0.141,-1,-0.188
4/28/2023 17:43:03.380,-0.133,-1.016,-0.168
4/28/2023 17:43:03.390,-0.121,-1.023,-0.152
4/28/2023 17:43:03.400,-0.102,-1.023,-0.16
4/28/2023 17:43:03.410,-0.086,-1.016,-0.164
4/28/2023 17:43:03.420,-0.059,-1.012,-0.176
4/28/2023 17:43:03.430,-0.039,-1.02,-0.172
4/28/2023 17:43:03.440,-0.031,-1.027,-0.184
4/28/2023 17:43:03.450,-0.02,-1.027,-0.188
4/28/2023 17:43:03.460,-0.012,-1.027,-0.172
4/28/2023 17:43:03.470,-0.023,-1.02,-0.152
4/28/2023 17:43:03.480,-0.035,-1.004,-0.145
4/28/2023 17:43:03.490,-0.051,-1.008,-0.129
4/28/2023 17:43:03.500,-0.066,-1.016,-0.129
4/28/2023 17:43:03.510,-0.059,-1.023,-0.137
4/28/2023 17:43:03.520,-0.043,-1.027,-0.16
4/28/2023 17:43:03.530,-0.031,-1.035,-0.18
4/28/2023 17:43:03.540,-0.035,-1.039,-0.215
4/28/2023 17:43:03.550,-0.063,-1.039,-0.262
4/28/2023 17:43:03.560,-0.117,-1.031,-0.313
4/28/2023 17:43:03.570,-0.203,-1.031,-0.344
4/28/2023 17:43:03.580,-0.277,-1.016,-0.352
4/28/2023 17:43:03.590,-0.348,-0.984,-0.352
4/28/2023 17:43:03.600,-0.43,-0.945,-0.355
4/28/2023 17:43:03.610,-0.496,-0.926,-0.352
4/28/2023 17:43:03.620,-0.535,-0.945,-0.34
4/28/2023 17:43:03.630,-0.523,-1.008,-0.277
4/28/2023 17:43:03.640,-0.477,-1.098,-0.227
4/28/2023 17:43:03.650,-0.434,-1.145,-0.234
4/28/2023 17:43:03.660,-0.379,-1.133,-0.23
4/28/2023 17:43:03.670,-0.27,-1.07,-0.152
4/28/2023 17:43:03.680,-0.137,-1.035,-0.082
4/28/2023 17:43:03.690,-0.051,-1.039,-0.07
4/28/2023 17:43:03.700,0.004,-1.035,-0.09
4/28/2023 17:43:03.710,-0.004,-1.012,-0.145
4/28/2023 17:43:03.720,-0.066,-0.996,-0.172
4/28/2023 17:43:03.730,-0.148,-0.977,-0.199
4/28/2023 17:43:03.740,-0.238,-0.996,-0.219
4/28/2023 17:43:03.750,-0.313,-1.031,-0.199
4/28/2023 17:43:03.760,-0.344,-1.063,-0.133
4/28/2023 17:43:03.770,-0.355,-1.066,-0.07
4/28/2023 17:43:03.780,-0.348,-1.047,-0.039
4/28/2023 17:43:03.790,-0.328,-0.992,-0.035
4/28/2023 17:43:03.800,-0.293,-0.902,-0.051
4/28/2023 17:43:03.810,-0.238,-0.805,-0.07
4/28/2023 17:43:03.820,-0.195,-0.762,-0.059
4/28/2023 17:43:03.830,-0.16,-0.773,-0.047
4/28/2023 17:43:03.840,-0.152,-0.848,-0.027
4/28/2023 17:43:03.850,-0.145,-0.941,0
4/28/2023 17:43:03.860,-0.148,-1.023,0.035
4/28/2023 17:43:03.870,-0.152,-1.051,0.07
4/28/2023 17:43:03.880,-0.168,-1.02,0.09
4/28/2023 17:43:03.890,-0.172,-0.957,0.102
4/28/2023 17:43:03.900,-0.184,-0.863,0.098
4/28/2023 17:43:03.910,-0.199,-0.805,0.09
4/28/2023 17:43:03.920,-0.227,-0.785,0.082
4/28/2023 17:43:03.930,-0.23,-0.797,0.086
4/28/2023 17:43:03.940,-0.219,-0.836,0.113
4/28/2023 17:43:03.950,-0.203,-0.883,0.121
4/28/2023 17:43:03.960,-0.191,-0.93,0.094
4/28/2023 17:43:03.970,-0.18,-1.004,0.074
4/28/2023 17:43:03.980,-0.172,-1.086,0.047
4/28/2023 17:43:03.990,-0.172,-1.164,0.043
4/28/2023 17:43:04.000,-0.195,-1.211,0.035
4/28/2023 17:43:04.010,-0.215,-1.254,0.035
4/28/2023 17:43:04.020,-0.27,-1.309,0.043
4/28/2023 17:43:04.030,-0.34,-1.355,0.039
4/28/2023 17:43:04.040,-0.418,-1.375,0.035
4/28/2023 17:43:04.050,-0.453,-1.371,0.07
4/28/2023 17:43:04.060,-0.43,-1.379,0.152
4/28/2023 17:43:04.070,-0.391,-1.391,0.211
4/28/2023 17:43:04.080,-0.379,-1.379,0.18
4/28/2023 17:43:04.090,-0.422,-1.332,0.074
4/28/2023 17:43:04.100,-0.48,-1.316,-0.047
4/28/2023 17:43:04.110,-0.527,-1.371,-0.117
4/28/2023 17:43:04.120,-0.551,-1.453,-0.164
4/28/2023 17:43:04.130,-0.496,-1.469,-0.156
4/28/2023 17:43:04.140,-0.402,-1.355,-0.141
4/28/2023 17:43:04.150,-0.375,-1.102,-0.191
4/28/2023 17:43:04.160,-0.445,-0.832,-0.273
4/28/2023 17:43:04.170,-0.559,-0.695,-0.332
4/28/2023 17:43:04.180,-0.652,-0.68,-0.348
4/28/2023 17:43:04.190,-0.699,-0.719,-0.316
4/28/2023 17:43:04.200,-0.641,-0.734,-0.309
4/28/2023 17:43:04.210,-0.539,-0.746,-0.355
4/28/2023 17:43:04.220,-0.465,-0.82,-0.375
4/28/2023 17:43:04.230,-0.422,-0.953,-0.359
4/28/2023 17:43:04.240,-0.355,-1.039,-0.363
4/28/2023 17:43:04.250,-0.273,-1.078,-0.363
4/28/2023 17:43:04.260,-0.211,-1.078,-0.316
4/28/2023 17:43:04.270,-0.176,-1.008,-0.273
4/28/2023 17:43:04.280,-0.172,-0.91,-0.246
4/28/2023 17:43:04.290,-0.191,-0.84,-0.211
4/28/2023 17:43:04.300,-0.223,-0.816,-0.207
4/28/2023 17:43:04.310,-0.254,-0.805,-0.203
4/28/2023 17:43:04.320,-0.262,-0.805,-0.156
4/28/2023 17:43:04.330,-0.281,-0.801,-0.137
4/28/2023 17:43:04.340,-0.277,-0.77,-0.133
4/28/2023 17:43:04.350,-0.25,-0.734,-0.145
4/28/2023 17:43:04.360,-0.223,-0.758,-0.113
4/28/2023 17:43:04.370,-0.184,-0.797,-0.086
4/28/2023 17:43:04.380,-0.156,-0.828,-0.07
4/28/2023 17:43:04.390,-0.148,-0.863,-0.031
4/28/2023 17:43:04.400,-0.156,-0.895,0.008
4/28/2023 17:43:04.410,-0.172,-0.883,0.016
4/28/2023 17:43:04.420,-0.188,-0.84,-0.016
4/28/2023 17:43:04.430,-0.176,-0.797,-0.051
4/28/2023 17:43:04.440,-0.156,-0.789,-0.051
4/28/2023 17:43:04.450,-0.125,-0.789,-0.074
4/28/2023 17:43:04.460,-0.109,-0.766,-0.102
4/28/2023 17:43:04.470,-0.137,-0.75,-0.098
4/28/2023 17:43:04.480,-0.203,-0.746,-0.066
4/28/2023 17:43:04.490,-0.301,-0.738,-0.047
4/28/2023 17:43:04.500,-0.395,-0.727,-0.07
4/28/2023 17:43:04.510,-0.43,-0.754,-0.059
4/28/2023 17:43:04.520,-0.434,-0.801,-0.059
4/28/2023 17:43:04.530,-0.379,-0.895,-0.066
4/28/2023 17:43:04.540,-0.301,-1.004,-0.102
4/28/2023 17:43:04.550,-0.238,-1.117,-0.152
4/28/2023 17:43:04.560,-0.148,-1.23,-0.184
4/28/2023 17:43:04.570,-0.043,-1.371,-0.184
4/28/2023 17:43:04.580,0.047,-1.516,-0.133
4/28/2023 17:43:04.590,0.145,-1.605,-0.102
4/28/2023 17:43:04.600,0.301,-1.59,-0.098
4/28/2023 17:43:04.610,0.48,-1.52,-0.066
4/28/2023 17:43:04.620,0.586,-1.48,-0.031
4/28/2023 17:43:04.630,0.5,-1.5,-0.066
4/28/2023 17:43:04.640,0.25,-1.531,-0.285
4/28/2023 17:43:04.650,-0.063,-1.547,-0.566
4/28/2023 17:43:04.660,-0.297,-1.563,-0.691
4/28/2023 17:43:04.670,-0.434,-1.473,-0.727
4/28/2023 17:43:04.680,-0.496,-1.383,-0.699
4/28/2023 17:43:04.690,-0.516,-1.332,-0.59
4/28/2023 17:43:04.700,-0.523,-1.176,-0.496
4/28/2023 17:43:04.710,-0.508,-0.949,-0.504
4/28/2023 17:43:04.720,-0.469,-0.801,-0.5
4/28/2023 17:43:04.730,-0.406,-0.762,-0.473
4/28/2023 17:43:04.740,-0.379,-0.801,-0.473
4/28/2023 17:43:04.750,-0.41,-0.855,-0.527
4/28/2023 17:43:04.760,-0.5,-0.891,-0.563
4/28/2023 17:43:04.770,-0.602,-0.949,-0.531
4/28/2023 17:43:04.780,-0.652,-1.004,-0.449
4/28/2023 17:43:04.790,-0.633,-1.035,-0.375
4/28/2023 17:43:04.800,-0.555,-1.012,-0.34
4/28/2023 17:43:04.810,-0.438,-0.961,-0.316
4/28/2023 17:43:04.820,-0.305,-0.895,-0.289
4/28/2023 17:43:04.830,-0.207,-0.813,-0.27
4/28/2023 17:43:04.840,-0.137,-0.73,-0.242
4/28/2023 17:43:04.850,-0.098,-0.668,-0.195
4/28/2023 17:43:04.860,-0.09,-0.641,-0.113
4/28/2023 17:43:04.870,-0.121,-0.664,-0.047
4/28/2023 17:43:04.880,-0.16,-0.691,0.008
4/28/2023 17:43:04.890,-0.188,-0.688,0.008
4/28/2023 17:43:04.900,-0.191,-0.633,-0.031
4/28/2023 17:43:04.910,-0.156,-0.578,-0.043
4/28/2023 17:43:04.920,-0.105,-0.555,-0.035
4/28/2023 17:43:04.930,-0.066,-0.574,0.012
4/28/2023 17:43:04.940,-0.031,-0.617,0.066
4/28/2023 17:43:04.950,-0.012,-0.684,0.086
4/28/2023 17:43:04.960,-0.023,-0.742,0.078
4/28/2023 17:43:04.970,-0.063,-0.793,0.055
4/28/2023 17:43:04.980,-0.105,-0.852,0.047
4/28/2023 17:43:04.990,-0.117,-0.906,0.066
4/28/2023 17:43:05.000,-0.117,-0.938,0.066
4/28/2023 17:43:05.010,-0.137,-0.938,0.031
4/28/2023 17:43:05.020,-0.184,-0.938,-0.031
4/28/2023 17:43:05.030,-0.254,-0.957,-0.078
4/28/2023 17:43:05.040,-0.34,-0.996,-0.117
4/28/2023 17:43:05.050,-0.418,-1.082,-0.137
4/28/2023 17:43:05.060,-0.508,-1.23,-0.156
4/28/2023 17:43:05.070,-0.59,-1.43,-0.137
4/28/2023 17:43:05.080,-0.688,-1.578,-0.098
4/28/2023 17:43:05.090,-0.75,-1.641,0.004
4/28/2023 17:43:05.100,-0.676,-1.594,0.195
4/28/2023 17:43:05.110,-0.5,-1.508,0.289
4/28/2023 17:43:05.120,-0.281,-1.426,0.328
4/28/2023 17:43:05.130,-0.094,-1.313,0.297
4/28/2023 17:43:05.140,-0.047,-1.078,0.012
4/28/2023 17:43:05.150,-0.215,-0.871,-0.281
4/28/2023 17:43:05.160,-0.563,-0.844,-0.5
4/28/2023 17:43:05.170,-0.977,-1.031,-0.738
4/28/2023 17:43:05.180,-1.316,-1.289,-0.992
4/28/2023 17:43:05.190,-1.332,-1.516,-1.016
4/28/2023 17:43:05.200,-0.973,-1.539,-0.707
4/28/2023 17:43:05.210,-0.445,-1.398,-0.406
4/28/2023 17:43:05.220,-0.004,-1.121,-0.266
4/28/2023 17:43:05.230,0.203,-0.785,-0.219
4/28/2023 17:43:05.240,0.188,-0.512,-0.234
4/28/2023 17:43:05.250,0.047,-0.355,-0.313
4/28/2023 17:43:05.260,-0.105,-0.422,-0.344
4/28/2023 17:43:05.270,-0.246,-0.684,-0.242
4/28/2023 17:43:05.280,-0.352,-0.961,-0.172
4/28/2023 17:43:05.290,-0.418,-1.16,-0.172
4/28/2023 17:43:05.300,-0.445,-1.227,-0.219
4/28/2023 17:43:05.310,-0.371,-1.16,-0.23
4/28/2023 17:43:05.320,-0.246,-1.039,-0.191
4/28/2023 17:43:05.330,-0.148,-0.914,-0.137
4/28/2023 17:43:05.340,-0.098,-0.801,-0.129
4/28/2023 17:43:05.350,-0.066,-0.711,-0.141
4/28/2023 17:43:05.360,-0.035,-0.648,-0.141
4/28/2023 17:43:05.370,-0.023,-0.598,-0.133
4/28/2023 17:43:05.380,-0.047,-0.574,-0.117
4/28/2023 17:43:05.390,-0.102,-0.602,-0.094
4/28/2023 17:43:05.400,-0.176,-0.68,-0.07
4/28/2023 17:43:05.410,-0.258,-0.781,-0.043
4/28/2023 17:43:05.420,-0.32,-0.793,-0.047
4/28/2023 17:43:05.430,-0.324,-0.766,-0.059
4/28/2023 17:43:05.440,-0.262,-0.684,-0.117
4/28/2023 17:43:05.450,-0.145,-0.621,-0.137
4/28/2023 17:43:05.460,-0.039,-0.621,-0.133
4/28/2023 17:43:05.470,0.012,-0.633,-0.133
4/28/2023 17:43:05.480,-0.035,-0.664,-0.102
4/28/2023 17:43:05.490,-0.137,-0.73,-0.086
4/28/2023 17:43:05.500,-0.258,-0.809,-0.094
4/28/2023 17:43:05.510,-0.336,-0.871,-0.102
4/28/2023 17:43:05.520,-0.367,-0.918,-0.094
4/28/2023 17:43:05.530,-0.355,-0.969,-0.074
4/28/2023 17:43:05.540,-0.313,-1.059,-0.043
4/28/2023 17:43:05.550,-0.223,-1.164,-0.004
4/28/2023 17:43:05.560,-0.129,-1.246,0.008
4/28/2023 17:43:05.570,-0.035,-1.316,-0.031
4/28/2023 17:43:05.580,0.074,-1.363,-0.082
4/28/2023 17:43:05.590,0.219,-1.426,-0.105
4/28/2023 17:43:05.600,0.336,-1.445,-0.094
4/28/2023 17:43:05.610,0.371,-1.449,-0.02
4/28/2023 17:43:05.620,0.273,-1.465,0.035
4/28/2023 17:43:05.630,-0.023,-1.484,-0.016
4/28/2023 17:43:05.640,-0.391,-1.484,-0.32
4/28/2023 17:43:05.650,-0.645,-1.445,-0.77
4/28/2023 17:43:05.660,-0.66,-1.359,-1.023
4/28/2023 17:43:05.670,-0.426,-1.434,-0.914
4/28/2023 17:43:05.680,-0.113,-1.508,-0.68
4/28/2023 17:43:05.690,-0.105,-1.391,-0.477
4/28/2023 17:43:05.700,-0.336,-1.191,-0.41
4/28/2023 17:43:05.710,-0.598,-1.07,-0.473
4/28/2023 17:43:05.720,-0.727,-1.02,-0.551
4/28/2023 17:43:05.730,-0.652,-0.953,-0.668
4/28/2023 17:43:05.740,-0.5,-0.918,-0.746
4/28/2023 17:43:05.750,-0.41,-1,-0.699
4/28/2023 17:43:05.760,-0.449,-1.117,-0.551
4/28/2023 17:43:05.770,-0.484,-1.242,-0.438
4/28/2023 17:43:05.780,-0.496,-1.324,-0.406
4/28/2023 17:43:05.790,-0.441,-1.293,-0.352
4/28/2023 17:43:05.800,-0.359,-1.156,-0.266
4/28/2023 17:43:05.810,-0.344,-0.949,-0.234
4/28/2023 17:43:05.820,-0.316,-0.777,-0.227
4/28/2023 17:43:05.830,-0.234,-0.645,-0.176
4/28/2023 17:43:05.840,-0.133,-0.563,-0.152
4/28/2023 17:43:05.850,-0.035,-0.512,-0.137
4/28/2023 17:43:05.860,-0.004,-0.473,-0.113
4/28/2023 17:43:05.870,-0.02,-0.445,-0.094
4/28/2023 17:43:05.880,-0.07,-0.48,-0.043
4/28/2023 17:43:05.890,-0.098,-0.555,0.027
4/28/2023 17:43:05.900,-0.121,-0.641,0.043
4/28/2023 17:43:05.910,-0.148,-0.688,0.039
4/28/2023 17:43:05.920,-0.141,-0.703,0.043
4/28/2023 17:43:05.930,-0.125,-0.672,0.035
4/28/2023 17:43:05.940,-0.113,-0.633,0.016
4/28/2023 17:43:05.950,-0.121,-0.629,0.031
4/28/2023 17:43:05.960,-0.117,-0.656,0.082
4/28/2023 17:43:05.970,-0.113,-0.715,0.129
4/28/2023 17:43:05.980,-0.098,-0.82,0.168
4/28/2023 17:43:05.990,-0.063,-0.918,0.168
4/28/2023 17:43:06.000,-0.027,-0.938,0.109
4/28/2023 17:43:06.010,0.043,-0.91,0.066
4/28/2023 17:43:06.020,0.063,-0.875,-0.012
4/28/2023 17:43:06.030,-0.035,-0.887,-0.105
4/28/2023 17:43:06.040,-0.207,-0.992,-0.133
4/28/2023 17:43:06.050,-0.438,-1.246,-0.176
4/28/2023 17:43:06.060,-0.645,-1.5,-0.207
4/28/2023 17:43:06.070,-0.742,-1.652,-0.16
4/28/2023 17:43:06.080,-0.754,-1.676,-0.035
4/28/2023 17:43:06.090,-0.648,-1.535,0.141
4/28/2023 17:43:06.100,-0.48,-1.363,0.254
4/28/2023 17:43:06.110,-0.273,-1.238,0.281
4/28/2023 17:43:06.120,-0.113,-1.09,0.023
4/28/2023 17:43:06.130,-0.156,-0.953,-0.422
4/28/2023 17:43:06.140,-0.441,-0.965,-0.641
4/28/2023 17:43:06.150,-0.887,-1.133,-0.898
4/28/2023 17:43:06.160,-1.297,-1.395,-1.094
4/28/2023 17:43:06.170,-1.434,-1.66,-0.988
4/28/2023 17:43:06.180,-1.078,-1.613,-0.594
4/28/2023 17:43:06.190,-0.469,-1.273,-0.367
4/28/2023 17:43:06.200,0.008,-0.918,-0.219
4/28/2023 17:43:06.210,0.227,-0.676,-0.125
4/28/2023 17:43:06.220,0.172,-0.535,-0.238
4/28/2023 17:43:06.230,0.004,-0.543,-0.422
4/28/2023 17:43:06.240,-0.191,-0.824,-0.52
4/28/2023 17:43:06.250,-0.316,-1.184,-0.52
4/28/2023 17:43:06.260,-0.391,-1.406,-0.398
4/28/2023 17:43:06.270,-0.441,-1.402,-0.313
4/28/2023 17:43:06.280,-0.402,-1.207,-0.273
4/28/2023 17:43:06.290,-0.371,-1.039,-0.246
4/28/2023 17:43:06.300,-0.352,-0.922,-0.211
4/28/2023 17:43:06.310,-0.289,-0.828,-0.156
4/28/2023 17:43:06.320,-0.203,-0.707,-0.098
4/28/2023 17:43:06.330,-0.164,-0.613,-0.094
4/28/2023 17:43:06.340,-0.168,-0.574,-0.121
4/28/2023 17:43:06.350,-0.18,-0.625,-0.125
4/28/2023 17:43:06.360,-0.148,-0.707,-0.078
4/28/2023 17:43:06.370,-0.09,-0.742,-0.035
4/28/2023 17:43:06.380,-0.063,-0.742,-0.055
4/28/2023 17:43:06.390,-0.059,-0.699,-0.082
4/28/2023 17:43:06.400,-0.043,-0.66,-0.07
4/28/2023 17:43:06.410,-0.008,-0.641,-0.051
4/28/2023 17:43:06.420,-0.004,-0.617,-0.051
4/28/2023 17:43:06.430,-0.039,-0.594,-0.07
4/28/2023 17:43:06.440,-0.09,-0.582,-0.063
4/28/2023 17:43:06.450,-0.125,-0.586,-0.047
4/28/2023 17:43:06.460,-0.137,-0.594,-0.043
4/28/2023 17:43:06.470,-0.148,-0.613,-0.039
4/28/2023 17:43:06.480,-0.164,-0.672,-0.051
4/28/2023 17:43:06.490,-0.207,-0.738,-0.082
4/28/2023 17:43:06.500,-0.242,-0.852,-0.078
4/28/2023 17:43:06.510,-0.246,-0.965,-0.066
4/28/2023 17:43:06.520,-0.246,-1.043,-0.105
4/28/2023 17:43:06.530,-0.223,-1.109,-0.125
4/28/2023 17:43:06.540,-0.191,-1.18,-0.117
4/28/2023 17:43:06.550,-0.164,-1.246,-0.117
4/28/2023 17:43:06.560,-0.141,-1.328,-0.102
4/28/2023 17:43:06.570,-0.063,-1.438,-0.051
4/28/2023 17:43:06.580,0.066,-1.488,-0.008
4/28/2023 17:43:06.590,0.191,-1.512,0.012
4/28/2023 17:43:06.600,0.203,-1.508,0.016
4/28/2023 17:43:06.610,0.02,-1.523,-0.074
4/28/2023 17:43:06.620,-0.25,-1.535,-0.426
4/28/2023 17:43:06.630,-0.414,-1.504,-0.852
4/28/2023 17:43:06.640,-0.332,-1.516,-0.98
4/28/2023 17:43:06.650,-0.117,-1.5,-0.957
4/28/2023 17:43:06.660,-0.07,-1.406,-0.863
4/28/2023 17:43:06.670,-0.27,-1.344,-0.672
4/28/2023 17:43:06.680,-0.563,-1.316,-0.414
4/28/2023 17:43:06.690,-0.777,-1.188,-0.328
4/28/2023 17:43:06.700,-0.828,-0.965,-0.426
4/28/2023 17:43:06.710,-0.719,-0.816,-0.574
4/28/2023 17:43:06.720,-0.504,-0.801,-0.707
4/28/2023 17:43:06.730,-0.277,-0.918,-0.656
4/28/2023 17:43:06.740,-0.207,-1.078,-0.453
4/28/2023 17:43:06.750,-0.309,-1.238,-0.387
4/28/2023 17:43:06.760,-0.441,-1.32,-0.465
4/28/2023 17:43:06.770,-0.465,-1.266,-0.445
4/28/2023 17:43:06.780,-0.414,-1.082,-0.336
4/28/2023 17:43:06.790,-0.379,-0.875,-0.258
4/28/2023 17:43:06.800,-0.359,-0.715,-0.199
4/28/2023 17:43:06.810,-0.324,-0.617,-0.148
4/28/2023 17:43:06.820,-0.258,-0.57,-0.129
4/28/2023 17:43:06.830,-0.18,-0.523,-0.113
4/28/2023 17:43:06.840,-0.133,-0.488,-0.094
4/28/2023 17:43:06.850,-0.078,-0.469,-0.078
4/28/2023 17:43:06.860,-0.004,-0.48,-0.059
4/28/2023 17:43:06.870,0.055,-0.531,-0.031
4/28/2023 17:43:06.880,0.055,-0.598,-0.016
4/28/2023 17:43:06.890,-0.016,-0.645,-0.035
4/28/2023 17:43:06.900,-0.09,-0.691,-0.031
4/28/2023 17:43:06.910,-0.109,-0.719,0.02
4/28/2023 17:43:06.920,-0.07,-0.715,0.063
4/28/2023 17:43:06.930,-0.047,-0.695,0.055
4/28/2023 17:43:06.940,-0.043,-0.688,0.02
4/28/2023 17:43:06.950,-0.047,-0.727,0.008
4/28/2023 17:43:06.960,-0.035,-0.809,0.008
4/28/2023 17:43:06.970,-0.059,-0.895,0.008
4/28/2023 17:43:06.980,-0.121,-0.898,-0.016
4/28/2023 17:43:06.990,-0.211,-0.805,-0.059
4/28/2023 17:43:07.000,-0.336,-0.77,-0.09
4/28/2023 17:43:07.010,-0.426,-0.875,-0.117
4/28/2023 17:43:07.020,-0.508,-1.094,-0.156
4/28/2023 17:43:07.030,-0.543,-1.359,-0.16
4/28/2023 17:43:07.040,-0.578,-1.652,-0.152
4/28/2023 17:43:07.050,-0.594,-1.898,-0.027
4/28/2023 17:43:07.060,-0.555,-1.867,0.066
4/28/2023 17:43:07.070,-0.422,-1.586,0.141
4/28/2023 17:43:07.080,-0.297,-1.305,0.086
4/28/2023 17:43:07.090,-0.309,-1.047,-0.281
4/28/2023 17:43:07.100,-0.535,-0.973,-0.527
4/28/2023 17:43:07.110,-0.906,-1.113,-0.793
4/28/2023 17:43:07.120,-1.316,-1.426,-1.047
4/28/2023 17:43:07.130,-1.477,-1.82,-1.012
4/28/2023 17:43:07.140,-1.164,-1.805,-0.699
4/28/2023 17:43:07.150,-0.527,-1.355,-0.492
4/28/2023 17:43:07.160,-0.027,-0.867,-0.41
4/28/2023 17:43:07.170,0.156,-0.566,-0.371
4/28/2023 17:43:07.180,0.125,-0.465,-0.352
4/28/2023 17:43:07.190,0.004,-0.508,-0.48
4/28/2023 17:43:07.200,-0.164,-0.715,-0.547
4/28/2023 17:43:07.210,-0.289,-0.98,-0.422
4/28/2023 17:43:07.220,-0.34,-1.191,-0.332
4/28/2023 17:43:07.230,-0.398,-1.25,-0.344
4/28/2023 17:43:07.240,-0.449,-1.191,-0.348
4/28/2023 17:43:07.250,-0.375,-1.047,-0.316
4/28/2023 17:43:07.260,-0.273,-0.93,-0.262
4/28/2023 17:43:07.270,-0.227,-0.816,-0.191
4/28/2023 17:43:07.280,-0.168,-0.684,-0.133
4/28/2023 17:43:07.290,-0.164,-0.574,-0.152
4/28/2023 17:43:07.300,-0.184,-0.484,-0.176
4/28/2023 17:43:07.310,-0.156,-0.441,-0.156
4/28/2023 17:43:07.320,-0.09,-0.469,-0.117
4/28/2023 17:43:07.330,-0.031,-0.559,-0.102
4/28/2023 17:43:07.340,-0.023,-0.656,-0.109
4/28/2023 17:43:07.350,-0.074,-0.73,-0.102
4/28/2023 17:43:07.360,-0.129,-0.754,-0.109
4/28/2023 17:43:07.370,-0.168,-0.73,-0.113
4/28/2023 17:43:07.380,-0.191,-0.66,-0.117
4/28/2023 17:43:07.390,-0.199,-0.574,-0.121
4/28/2023 17:43:07.400,-0.184,-0.531,-0.105
4/28/2023 17:43:07.410,-0.145,-0.531,-0.094
4/28/2023 17:43:07.420,-0.121,-0.57,-0.105
4/28/2023 17:43:07.430,-0.121,-0.625,-0.117
4/28/2023 17:43:07.440,-0.141,-0.691,-0.117
4/28/2023 17:43:07.450,-0.184,-0.762,-0.137
4/28/2023 17:43:07.460,-0.246,-0.852,-0.156
4/28/2023 17:43:07.470,-0.309,-0.992,-0.145
4/28/2023 17:43:07.480,-0.332,-1.172,-0.137
4/28/2023 17:43:07.490,-0.316,-1.344,-0.121
4/28/2023 17:43:07.500,-0.246,-1.453,-0.109
4/28/2023 17:43:07.510,-0.059,-1.492,-0.117
4/28/2023 17:43:07.520,0.18,-1.523,-0.082
4/28/2023 17:43:07.530,0.422,-1.555,-0.02
4/28/2023 17:43:07.540,0.578,-1.516,-0.055
4/28/2023 17:43:07.550,0.523,-1.496,-0.094
4/28/2023 17:43:07.560,0.168,-1.602,-0.203
4/28/2023 17:43:07.570,-0.262,-1.617,-0.578
4/28/2023 17:43:07.580,-0.535,-1.637,-0.898
4/28/2023 17:43:07.590,-0.566,-1.621,-1.047
4/28/2023 17:43:07.600,-0.484,-1.512,-1.055
4/28/2023 17:43:07.610,-0.398,-1.402,-0.844
4/28/2023 17:43:07.620,-0.445,-1.313,-0.648
4/28/2023 17:43:07.630,-0.602,-1.16,-0.516
4/28/2023 17:43:07.640,-0.723,-0.977,-0.449
4/28/2023 17:43:07.650,-0.777,-0.836,-0.477
4/28/2023 17:43:07.660,-0.723,-0.742,-0.605
4/28/2023 17:43:07.670,-0.578,-0.711,-0.762
4/28/2023 17:43:07.680,-0.449,-0.789,-0.738
4/28/2023 17:43:07.690,-0.398,-0.941,-0.574
4/28/2023 17:43:07.700,-0.441,-1.121,-0.469
4/28/2023 17:43:07.710,-0.473,-1.266,-0.434
4/28/2023 17:43:07.720,-0.41,-1.313,-0.379
4/28/2023 17:43:07.730,-0.305,-1.207,-0.285
4/28/2023 17:43:07.740,-0.219,-1.02,-0.25
4/28/2023 17:43:07.750,-0.16,-0.828,-0.262
4/28/2023 17:43:07.760,-0.086,-0.672,-0.27
4/28/2023 17:43:07.770,-0.027,-0.598,-0.227
4/28/2023 17:43:07.780,0.012,-0.543,-0.148
4/28/2023 17:43:07.790,-0.012,-0.512,-0.117
4/28/2023 17:43:07.800,-0.074,-0.496,-0.137
4/28/2023 17:43:07.810,-0.117,-0.516,-0.137
4/28/2023 17:43:07.820,-0.117,-0.559,-0.102
4/28/2023 17:43:07.830,-0.105,-0.582,-0.066
4/28/2023 17:43:07.840,-0.113,-0.605,-0.035
4/28/2023 17:43:07.850,-0.145,-0.617,-0.008
4/28/2023 17:43:07.860,-0.148,-0.629,0
4/28/2023 17:43:07.870,-0.141,-0.652,0.012
4/28/2023 17:43:07.880,-0.133,-0.699,0.035
4/28/2023 17:43:07.890,-0.125,-0.773,0.063
4/28/2023 17:43:07.900,-0.113,-0.848,0.078
4/28/2023 17:43:07.910,-0.082,-0.898,0.059
4/28/2023 17:43:07.920,-0.035,-0.902,0.008
4/28/2023 17:43:07.930,0,-0.844,-0.047
4/28/2023 17:43:07.940,0.004,-0.777,-0.074
4/28/2023 17:43:07.950,-0.023,-0.73,-0.094
4/28/2023 17:43:07.960,-0.098,-0.738,-0.156
4/28/2023 17:43:07.970,-0.23,-0.879,-0.207
4/28/2023 17:43:07.980,-0.391,-1.113,-0.223
4/28/2023 17:43:07.990,-0.582,-1.422,-0.215
4/28/2023 17:43:08.000,-0.801,-1.746,-0.184
4/28/2023 17:43:08.010,-0.898,-1.906,-0.094
4/28/2023 17:43:08.020,-0.777,-1.754,0.023
4/28/2023 17:43:08.030,-0.602,-1.406,-0.09
4/28/2023 17:43:08.040,-0.563,-1.137,-0.43
4/28/2023 17:43:08.050,-0.68,-1.109,-0.602
4/28/2023 17:43:08.060,-0.867,-1.305,-0.727
4/28/2023 17:43:08.070,-1.031,-1.66,-0.707
4/28/2023 17:43:08.080,-1.016,-1.93,-0.465
4/28/2023 17:43:08.090,-0.809,-1.703,-0.383
4/28/2023 17:43:08.100,-0.469,-1.086,-0.426
4/28/2023 17:43:08.110,-0.188,-0.625,-0.398
4/28/2023 17:43:08.120,-0.047,-0.414,-0.387
4/28/2023 17:43:08.130,-0.059,-0.398,-0.477
4/28/2023 17:43:08.140,-0.23,-0.578,-0.59
4/28/2023 17:43:08.150,-0.398,-0.879,-0.594
4/28/2023 17:43:08.160,-0.414,-1.145,-0.52
4/28/2023 17:43:08.170,-0.293,-1.25,-0.359
4/28/2023 17:43:08.180,-0.199,-1.188,-0.273
4/28/2023 17:43:08.190,-0.156,-1.039,-0.281
4/28/2023 17:43:08.200,-0.145,-0.949,-0.293
4/28/2023 17:43:08.210,-0.164,-0.945,-0.297
4/28/2023 17:43:08.220,-0.188,-0.957,-0.313
4/28/2023 17:43:08.230,-0.164,-0.883,-0.242
4/28/2023 17:43:08.240,-0.172,-0.785,-0.176
4/28/2023 17:43:08.250,-0.234,-0.691,-0.176
4/28/2023 17:43:08.260,-0.293,-0.598,-0.191
4/28/2023 17:43:08.270,-0.285,-0.539,-0.184
4/28/2023 17:43:08.280,-0.223,-0.512,-0.145
4/28/2023 17:43:08.290,-0.172,-0.523,-0.117
4/28/2023 17:43:08.300,-0.152,-0.574,-0.109
4/28/2023 17:43:08.310,-0.16,-0.637,-0.117
4/28/2023 17:43:08.320,-0.18,-0.672,-0.113
4/28/2023 17:43:08.330,-0.188,-0.695,-0.09
4/28/2023 17:43:08.340,-0.145,-0.695,-0.066
4/28/2023 17:43:08.350,-0.086,-0.703,-0.039
4/28/2023 17:43:08.360,-0.039,-0.715,-0.027
4/28/2023 17:43:08.370,-0.008,-0.711,-0.039
4/28/2023 17:43:08.380,-0.016,-0.699,-0.086
4/28/2023 17:43:08.390,-0.035,-0.684,-0.102
4/28/2023 17:43:08.400,-0.055,-0.68,-0.09
4/28/2023 17:43:08.410,-0.117,-0.699,-0.074
4/28/2023 17:43:08.420,-0.238,-0.719,-0.086
4/28/2023 17:43:08.430,-0.363,-0.762,-0.129
4/28/2023 17:43:08.440,-0.445,-0.84,-0.164
4/28/2023 17:43:08.450,-0.441,-0.957,-0.137
4/28/2023 17:43:08.460,-0.348,-1.129,-0.09
4/28/2023 17:43:08.470,-0.215,-1.297,-0.082
4/28/2023 17:43:08.480,-0.094,-1.41,-0.141
4/28/2023 17:43:08.490,0.059,-1.469,-0.199
4/28/2023 17:43:08.500,0.23,-1.52,-0.184
4/28/2023 17:43:08.510,0.387,-1.531,-0.117
4/28/2023 17:43:08.520,0.426,-1.512,-0.012
4/28/2023 17:43:08.530,0.309,-1.516,0.09
4/28/2023 17:43:08.540,0,-1.539,0.066
4/28/2023 17:43:08.550,-0.418,-1.5,-0.324
4/28/2023 17:43:08.560,-0.672,-1.48,-0.852
4/28/2023 17:43:08.570,-0.648,-1.543,-1.031
4/28/2023 17:43:08.580,-0.387,-1.605,-0.953
4/28/2023 17:43:08.590,-0.199,-1.43,-0.824
4/28/2023 17:43:08.600,-0.211,-1.199,-0.711
4/28/2023 17:43:08.610,-0.352,-1.035,-0.586
4/28/2023 17:43:08.620,-0.496,-0.938,-0.465
4/28/2023 17:43:08.630,-0.59,-0.867,-0.434
4/28/2023 17:43:08.640,-0.609,-0.813,-0.496
4/28/2023 17:43:08.650,-0.563,-0.797,-0.633
4/28/2023 17:43:08.660,-0.52,-0.852,-0.73
4/28/2023 17:43:08.670,-0.484,-0.988,-0.621
4/28/2023 17:43:08.680,-0.449,-1.152,-0.477
4/28/2023 17:43:08.690,-0.391,-1.254,-0.391
4/28/2023 17:43:08.700,-0.316,-1.266,-0.32
4/28/2023 17:43:08.710,-0.277,-1.148,-0.277
4/28/2023 17:43:08.720,-0.281,-0.984,-0.258
4/28/2023 17:43:08.730,-0.273,-0.816,-0.258
4/28/2023 17:43:08.740,-0.227,-0.676,-0.23
4/28/2023 17:43:08.750,-0.168,-0.57,-0.18
4/28/2023 17:43:08.760,-0.141,-0.5,-0.121
4/28/2023 17:43:08.770,-0.145,-0.457,-0.078
4/28/2023 17:43:08.780,-0.152,-0.453,-0.063
4/28/2023 17:43:08.790,-0.125,-0.461,-0.074
4/28/2023 17:43:08.800,-0.074,-0.469,-0.086
4/28/2023 17:43:08.810,-0.012,-0.48,-0.059
4/28/2023 17:43:08.820,0.012,-0.516,0
4/28/2023 17:43:08.830,-0.027,-0.574,0.031
4/28/2023 17:43:08.840,-0.07,-0.637,0.027
4/28/2023 17:43:08.850,-0.078,-0.691,0.031
4/28/2023 17:43:08.860,-0.043,-0.711,0.051
4/28/2023 17:43:08.870,0,-0.719,0.078
4/28/2023 17:43:08.880,0.027,-0.75,0.094
4/28/2023 17:43:08.890,0.031,-0.805,0.051
4/28/2023 17:43:08.900,0.023,-0.887,-0.016
4/28/2023 17:43:08.910,0.039,-0.965,0.004
4/28/2023 17:43:08.920,0.055,-0.992,0.008
4/28/2023 17:43:08.930,-0.023,-0.941,-0.086
4/28/2023 17:43:08.940,-0.129,-0.902,-0.137
4/28/2023 17:43:08.950,-0.215,-0.965,-0.137
4/28/2023 17:43:08.960,-0.363,-1.16,-0.18
4/28/2023 17:43:08.970,-0.543,-1.406,-0.16
4/28/2023 17:43:08.980,-0.746,-1.633,-0.098
4/28/2023 17:43:08.990,-0.941,-1.73,-0.074
4/28/2023 17:43:09.000,-1.043,-1.637,0
4/28/2023 17:43:09.010,-0.84,-1.43,0.184
4/28/2023 17:43:09.020,-0.539,-1.277,0.188
4/28/2023 17:43:09.030,-0.289,-1.074,-0.152
4/28/2023 17:43:09.040,-0.281,-0.887,-0.641
4/28/2023 17:43:09.050,-0.574,-0.828,-0.906
4/28/2023 17:43:09.060,-1.059,-1.023,-1.273
4/28/2023 17:43:09.070,-1.5,-1.52,-1.477
4/28/2023 17:43:09.080,-1.453,-2.055,-1.063
4/28/2023 17:43:09.090,-0.801,-1.984,-0.52
4/28/2023 17:43:09.100,-0.074,-1.488,-0.332
4/28/2023 17:43:09.110,0.441,-0.871,-0.297
4/28/2023 17:43:09.120,0.508,-0.469,-0.273
4/28/2023 17:43:09.130,0.355,-0.293,-0.309
4/28/2023 17:43:09.140,0.105,-0.297,-0.453
4/28/2023 17:43:09.150,-0.23,-0.566,-0.656
4/28/2023 17:43:09.160,-0.504,-1,-0.672
4/28/2023 17:43:09.170,-0.609,-1.508,-0.477
4/28/2023 17:43:09.180,-0.48,-1.707,-0.242
4/28/2023 17:43:09.190,-0.398,-1.484,-0.309
4/28/2023 17:43:09.200,-0.363,-1.184,-0.398
4/28/2023 17:43:09.210,-0.238,-0.977,-0.336
4/28/2023 17:43:09.220,-0.098,-0.773,-0.234
4/28/2023 17:43:09.230,-0.059,-0.602,-0.184
4/28/2023 17:43:09.240,-0.133,-0.477,-0.18
4/28/2023 17:43:09.250,-0.254,-0.41,-0.18
4/28/2023 17:43:09.260,-0.305,-0.402,-0.145
4/28/2023 17:43:09.270,-0.336,-0.469,-0.125
4/28/2023 17:43:09.280,-0.336,-0.578,-0.074
4/28/2023 17:43:09.290,-0.301,-0.645,-0.035
4/28/2023 17:43:09.300,-0.242,-0.656,-0.043
4/28/2023 17:43:09.310,-0.168,-0.633,-0.07
4/28/2023 17:43:09.320,-0.082,-0.602,-0.102
4/28/2023 17:43:09.330,-0.012,-0.59,-0.133
4/28/2023 17:43:09.340,0.059,-0.578,-0.117
4/28/2023 17:43:09.350,0.082,-0.574,-0.07
4/28/2023 17:43:09.360,0.051,-0.559,-0.074
4/28/2023 17:43:09.370,-0.012,-0.551,-0.07
4/28/2023 17:43:09.380,-0.094,-0.539,-0.066
4/28/2023 17:43:09.390,-0.18,-0.563,-0.082
4/28/2023 17:43:09.400,-0.273,-0.648,-0.125
4/28/2023 17:43:09.410,-0.332,-0.832,-0.105
4/28/2023 17:43:09.420,-0.367,-1.141,-0.047
4/28/2023 17:43:09.430,-0.371,-1.402,-0.004
4/28/2023 17:43:09.440,-0.32,-1.492,-0.043
4/28/2023 17:43:09.450,-0.207,-1.477,-0.078
4/28/2023 17:43:09.460,0.016,-1.473,-0.086
4/28/2023 17:43:09.470,0.277,-1.488,-0.027
4/28/2023 17:43:09.480,0.457,-1.484,-0.023
4/28/2023 17:43:09.490,0.465,-1.453,-0.027
4/28/2023 17:43:09.500,0.293,-1.527,0.051
4/28/2023 17:43:09.510,-0.16,-1.57,-0.137
4/28/2023 17:43:09.520,-0.605,-1.504,-0.66
4/28/2023 17:43:09.530,-0.742,-1.512,-1.074
4/28/2023 17:43:09.540,-0.496,-1.602,-1.055
4/28/2023 17:43:09.550,-0.109,-1.48,-0.898
4/28/2023 17:43:09.560,0.039,-1.289,-0.738
4/28/2023 17:43:09.570,-0.105,-1.195,-0.508
4/28/2023 17:43:09.580,-0.418,-1.184,-0.355
4/28/2023 17:43:09.590,-0.707,-1.102,-0.445
4/28/2023 17:43:09.600,-0.797,-0.973,-0.582
4/28/2023 17:43:09.610,-0.668,-0.906,-0.707
4/28/2023 17:43:09.620,-0.473,-0.988,-0.773
4/28/2023 17:43:09.630,-0.344,-1.133,-0.633
4/28/2023 17:43:09.640,-0.34,-1.262,-0.461
4/28/2023 17:43:09.650,-0.398,-1.344,-0.383
4/28/2023 17:43:09.660,-0.398,-1.332,-0.344
4/28/2023 17:43:09.670,-0.332,-1.172,-0.262
4/28/2023 17:43:09.680,-0.277,-0.938,-0.223
4/28/2023 17:43:09.690,-0.254,-0.715,-0.23
4/28/2023 17:43:09.700,-0.207,-0.555,-0.211
4/28/2023 17:43:09.710,-0.137,-0.473,-0.156
4/28/2023 17:43:09.720,-0.102,-0.445,-0.121
4/28/2023 17:43:09.730,-0.117,-0.441,-0.109
4/28/2023 17:43:09.740,-0.125,-0.434,-0.105
4/28/2023 17:43:09.750,-0.105,-0.449,-0.074
4/28/2023 17:43:09.760,-0.051,-0.5,-0.016
4/28/2023 17:43:09.770,0.004,-0.559,0.047
4/28/2023 17:43:09.780,0.02,-0.602,0.09
4/28/2023 17:43:09.790,-0.035,-0.633,0.09
4/28/2023 17:43:09.800,-0.109,-0.645,0.047
4/28/2023 17:43:09.810,-0.113,-0.641,0.031
4/28/2023 17:43:09.820,-0.047,-0.637,0.027
4/28/2023 17:43:09.830,0.012,-0.652,0.008
4/28/2023 17:43:09.840,0.031,-0.676,-0.008
4/28/2023 17:43:09.850,0.031,-0.723,0
4/28/2023 17:43:09.860,0,-0.828,0.023
4/28/2023 17:43:09.870,-0.039,-0.906,-0.012
4/28/2023 17:43:09.880,-0.098,-0.949,-0.125
4/28/2023 17:43:09.890,-0.223,-0.973,-0.23
4/28/2023 17:43:09.900,-0.371,-1.027,-0.242
4/28/2023 17:43:09.910,-0.563,-1.148,-0.195
4/28/2023 17:43:09.920,-0.813,-1.344,-0.172
4/28/2023 17:43:09.930,-1.012,-1.531,-0.156
4/28/2023 17:43:09.940,-0.938,-1.641,-0.023
4/28/2023 17:43:09.950,-0.734,-1.504,-0.102
4/28/2023 17:43:09.960,-0.633,-1.191,-0.551
4/28/2023 17:43:09.970,-0.762,-1.063,-0.906
4/28/2023 17:43:09.980,-1.023,-1.23,-1.246
4/28/2023 17:43:09.990,-1.316,-1.762,-1.418
4/28/2023 17:43:10.000,-1.309,-2.5,-0.953
4/28/2023 17:43:10.010,-0.809,-2.707,-0.262
4/28/2023 17:43:10.020,-0.25,-1.898,-0.258
4/28/2023 17:43:10.030,0.121,-0.863,-0.484
4/28/2023 17:43:10.040,0.145,-0.309,-0.563
4/28/2023 17:43:10.050,0.008,-0.07,-0.516
4/28/2023 17:43:10.060,-0.211,-0.074,-0.602
4/28/2023 17:43:10.070,-0.43,-0.344,-0.723
4/28/2023 17:43:10.080,-0.527,-0.813,-0.691
4/28/2023 17:43:10.090,-0.5,-1.328,-0.543
4/28/2023 17:43:10.100,-0.305,-1.629,-0.34
4/28/2023 17:43:10.110,-0.168,-1.578,-0.273
4/28/2023 17:43:10.120,-0.113,-1.203,-0.332
4/28/2023 17:43:10.130,-0.027,-0.883,-0.293
4/28/2023 17:43:10.140,-0.004,-0.719,-0.211
4/28/2023 17:43:10.150,-0.039,-0.637,-0.148
4/28/2023 17:43:10.160,-0.094,-0.578,-0.125
4/28/2023 17:43:10.170,-0.129,-0.516,-0.109
4/28/2023 17:43:10.180,-0.137,-0.449,-0.113
4/28/2023 17:43:10.190,-0.109,-0.398,-0.152
4/28/2023 17:43:10.200,-0.059,-0.426,-0.207
4/28/2023 17:43:10.210,-0.027,-0.508,-0.207
4/28/2023 17:43:10.220,-0.059,-0.617,-0.18
4/28/2023 17:43:10.230,-0.148,-0.719,-0.133
4/28/2023 17:43:10.240,-0.242,-0.766,-0.105
4/28/2023 17:43:10.250,-0.293,-0.777,-0.094
4/28/2023 17:43:10.260,-0.301,-0.754,-0.086
4/28/2023 17:43:10.270,-0.27,-0.688,-0.121
4/28/2023 17:43:10.280,-0.195,-0.645,-0.164
4/28/2023 17:43:10.290,-0.125,-0.645,-0.188
4/28/2023 17:43:10.300,-0.086,-0.695,-0.156
4/28/2023 17:43:10.310,-0.098,-0.758,-0.121
4/28/2023 17:43:10.320,-0.141,-0.793,-0.141
4/28/2023 17:43:10.330,-0.176,-0.797,-0.184
4/28/2023 17:43:10.340,-0.184,-0.824,-0.238
4/28/2023 17:43:10.350,-0.18,-0.902,-0.254
4/28/2023 17:43:10.360,-0.203,-1.031,-0.203
4/28/2023 17:43:10.370,-0.238,-1.191,-0.121
4/28/2023 17:43:10.380,-0.246,-1.355,-0.066
4/28/2023 17:43:10.390,-0.148,-1.469,-0.055
4/28/2023 17:43:10.400,0.074,-1.488,-0.098
4/28/2023 17:43:10.410,0.34,-1.43,-0.145
4/28/2023 17:43:10.420,0.539,-1.344,-0.18
4/28/2023 17:43:10.430,0.484,-1.32,-0.16
4/28/2023 17:43:10.440,0.094,-1.336,-0.18
4/28/2023 17:43:10.450,-0.371,-1.313,-0.559
4/28/2023 17:43:10.460,-0.676,-1.246,-1.07
4/28/2023 17:43:10.470,-0.637,-1.313,-1.176
4/28/2023 17:43:10.480,-0.406,-1.371,-0.855
4/28/2023 17:43:10.490,-0.297,-1.336,-0.652
4/28/2023 17:43:10.500,-0.422,-1.316,-0.523
4/28/2023 17:43:10.510,-0.672,-1.328,-0.422
4/28/2023 17:43:10.520,-0.895,-1.23,-0.59
4/28/2023 17:43:10.530,-0.879,-1.043,-0.754
4/28/2023 17:43:10.540,-0.648,-0.902,-0.855
4/28/2023 17:43:10.550,-0.414,-0.887,-0.828
4/28/2023 17:43:10.560,-0.367,-0.969,-0.664
4/28/2023 17:43:10.570,-0.484,-1.121,-0.527
4/28/2023 17:43:10.580,-0.602,-1.258,-0.516
4/28/2023 17:43:10.590,-0.582,-1.328,-0.496
4/28/2023 17:43:10.600,-0.488,-1.266,-0.398
4/28/2023 17:43:10.610,-0.406,-1.094,-0.293
4/28/2023 17:43:10.620,-0.379,-0.926,-0.242
4/28/2023 17:43:10.630,-0.316,-0.777,-0.223
4/28/2023 17:43:10.640,-0.223,-0.66,-0.195
4/28/2023 17:43:10.650,-0.113,-0.535,-0.145
4/28/2023 17:43:10.660,-0.023,-0.426,-0.113
4/28/2023 17:43:10.670,0.039,-0.332,-0.094
4/28/2023 17:43:10.680,0.07,-0.293,-0.078
4/28/2023 17:43:10.690,0.078,-0.297,-0.066
4/28/2023 17:43:10.700,0.055,-0.363,-0.059
4/28/2023 17:43:10.710,0.012,-0.457,-0.031
4/28/2023 17:43:10.720,-0.023,-0.551,0.023
4/28/2023 17:43:10.730,-0.039,-0.617,0.07
4/28/2023 17:43:10.740,-0.027,-0.652,0.078
4/28/2023 17:43:10.750,-0.008,-0.668,0.063
4/28/2023 17:43:10.760,0.004,-0.668,0.055
4/28/2023 17:43:10.770,0.02,-0.676,0.031
4/28/2023 17:43:10.780,0.023,-0.707,0.004
4/28/2023 17:43:10.790,0.02,-0.773,-0.008
4/28/2023 17:43:10.800,-0.008,-0.871,-0.02
4/28/2023 17:43:10.810,-0.09,-0.988,0
4/28/2023 17:43:10.820,-0.242,-1.078,-0.059
4/28/2023 17:43:10.830,-0.43,-1.121,-0.195
4/28/2023 17:43:10.840,-0.582,-1.188,-0.262
4/28/2023 17:43:10.850,-0.703,-1.367,-0.23
4/28/2023 17:43:10.860,-0.758,-1.633,-0.117
4/28/2023 17:43:10.870,-0.738,-1.742,-0.051
4/28/2023 17:43:10.880,-0.637,-1.57,-0.008
4/28/2023 17:43:10.890,-0.418,-1.367,0.117
4/28/2023 17:43:10.900,-0.203,-1.285,0.211
4/28/2023 17:43:10.910,-0.141,-1.191,-0.094
4/28/2023 17:43:10.920,-0.328,-1.055,-0.574
4/28/2023 17:43:10.930,-0.727,-1.086,-0.918
4/28/2023 17:43:10.940,-1.176,-1.293,-1.266
4/28/2023 17:43:10.950,-1.41,-1.605,-1.254
4/28/2023 17:43:10.960,-1.215,-1.82,-0.742
4/28/2023 17:43:10.970,-0.715,-1.672,-0.355
4/28/2023 17:43:10.980,-0.23,-1.207,-0.289
4/28/2023 17:43:10.990,0.074,-0.734,-0.254
4/28/2023 17:43:11.000,0.109,-0.438,-0.293
4/28/2023 17:43:11.010,-0.012,-0.363,-0.367
4/28/2023 17:43:11.020,-0.184,-0.5,-0.508
4/28/2023 17:43:11.030,-0.363,-0.789,-0.617
4/28/2023 17:43:11.040,-0.461,-1.152,-0.547
4/28/2023 17:43:11.050,-0.441,-1.434,-0.422
4/28/2023 17:43:11.060,-0.398,-1.469,-0.348
4/28/2023 17:43:11.070,-0.434,-1.285,-0.43
4/28/2023 17:43:11.080,-0.418,-1.09,-0.434
4/28/2023 17:43:11.090,-0.266,-0.891,-0.266
4/28/2023 17:43:11.100,-0.223,-0.738,-0.176
4/28/2023 17:43:11.110,-0.273,-0.613,-0.172
4/28/2023 17:43:11.120,-0.301,-0.504,-0.156
4/28/2023 17:43:11.130,-0.246,-0.402,-0.125
4/28/2023 17:43:11.140,-0.195,-0.336,-0.113
4/28/2023 17:43:11.150,-0.129,-0.352,-0.133
4/28/2023 17:43:11.160,-0.082,-0.453,-0.129
4/28/2023 17:43:11.170,-0.059,-0.59,-0.125
4/28/2023 17:43:11.180,-0.09,-0.734,-0.098
4/28/2023 17:43:11.190,-0.113,-0.801,-0.074
4/28/2023 17:43:11.200,-0.117,-0.793,-0.074
4/28/2023 17:43:11.210,-0.094,-0.715,-0.105
4/28/2023 17:43:11.220,-0.074,-0.617,-0.117
4/28/2023 17:43:11.230,-0.074,-0.574,-0.074
4/28/2023 17:43:11.240,-0.105,-0.566,-0.051
4/28/2023 17:43:11.250,-0.125,-0.578,-0.055
4/28/2023 17:43:11.260,-0.156,-0.617,-0.074
4/28/2023 17:43:11.270,-0.184,-0.691,-0.117
4/28/2023 17:43:11.280,-0.199,-0.777,-0.164
4/28/2023 17:43:11.290,-0.195,-0.891,-0.188
4/28/2023 17:43:11.300,-0.203,-1.043,-0.176
4/28/2023 17:43:11.310,-0.219,-1.215,-0.129
4/28/2023 17:43:11.320,-0.242,-1.383,-0.145
4/28/2023 17:43:11.330,-0.195,-1.504,-0.176
4/28/2023 17:43:11.340,-0.074,-1.578,-0.168
4/28/2023 17:43:11.350,0.137,-1.59,-0.094
4/28/2023 17:43:11.360,0.363,-1.586,-0.035
4/28/2023 17:43:11.370,0.508,-1.523,-0.055
4/28/2023 17:43:11.380,0.387,-1.492,-0.094
4/28/2023 17:43:11.390,0.02,-1.527,-0.328
4/28/2023 17:43:11.400,-0.371,-1.594,-0.656
4/28/2023 17:43:11.410,-0.602,-1.617,-0.902
4/28/2023 17:43:11.420,-0.641,-1.516,-1.008
4/28/2023 17:43:11.430,-0.559,-1.367,-0.938
4/28/2023 17:43:11.440,-0.484,-1.254,-0.754
4/28/2023 17:43:11.450,-0.504,-1.176,-0.57
4/28/2023 17:43:11.460,-0.625,-1.094,-0.43
4/28/2023 17:43:11.470,-0.738,-0.984,-0.406
4/28/2023 17:43:11.480,-0.734,-0.848,-0.449
4/28/2023 17:43:11.490,-0.613,-0.742,-0.598
4/28/2023 17:43:11.500,-0.473,-0.742,-0.676
4/28/2023 17:43:11.510,-0.387,-0.867,-0.57
4/28/2023 17:43:11.520,-0.363,-1.027,-0.453
4/28/2023 17:43:11.530,-0.367,-1.164,-0.414
4/28/2023 17:43:11.540,-0.305,-1.223,-0.387
4/28/2023 17:43:11.550,-0.25,-1.176,-0.32
4/28/2023 17:43:11.560,-0.238,-1.023,-0.27
4/28/2023 17:43:11.570,-0.227,-0.852,-0.246
4/28/2023 17:43:11.580,-0.188,-0.695,-0.219
4/28/2023 17:43:11.590,-0.125,-0.566,-0.16
4/28/2023 17:43:11.600,-0.078,-0.473,-0.09
4/28/2023 17:43:11.610,-0.043,-0.395,-0.031
4/28/2023 17:43:11.620,-0.043,-0.359,-0.012
4/28/2023 17:43:11.630,-0.055,-0.348,-0.043
4/28/2023 17:43:11.640,-0.039,-0.348,-0.09
4/28/2023 17:43:11.650,-0.031,-0.375,-0.09
4/28/2023 17:43:11.660,-0.059,-0.477,-0.027
4/28/2023 17:43:11.670,-0.105,-0.602,0.023
4/28/2023 17:43:11.680,-0.172,-0.711,0.023
4/28/2023 17:43:11.690,-0.223,-0.781,0.035
4/28/2023 17:43:11.700,-0.199,-0.805,0.082
4/28/2023 17:43:11.710,-0.105,-0.789,0.117
4/28/2023 17:43:11.720,-0.027,-0.781,0.105
4/28/2023 17:43:11.730,0.016,-0.809,0.074
4/28/2023 17:43:11.740,0.051,-0.883,0.051
4/28/2023 17:43:11.750,0.07,-0.965,0
4/28/2023 17:43:11.760,0.059,-1,-0.086
4/28/2023 17:43:11.770,-0.031,-1.027,-0.191
4/28/2023 17:43:11.780,-0.176,-1.117,-0.219
4/28/2023 17:43:11.790,-0.375,-1.281,-0.215
4/28/2023 17:43:11.800,-0.598,-1.52,-0.203
4/28/2023 17:43:11.810,-0.766,-1.762,-0.152
4/28/2023 17:43:11.820,-0.781,-1.805,-0.059
4/28/2023 17:43:11.830,-0.625,-1.625,0.051
4/28/2023 17:43:11.840,-0.418,-1.379,0.055
4/28/2023 17:43:11.850,-0.34,-1.082,-0.355
4/28/2023 17:43:11.860,-0.57,-0.934,-0.73
4/28/2023 17:43:11.870,-0.992,-1.105,-1.035
4/28/2023 17:43:11.880,-1.434,-1.559,-1.344
4/28/2023 17:43:11.890,-1.535,-2.012,-1.145
4/28/2023 17:43:11.900,-1.156,-2.031,-0.621
4/28/2023 17:43:11.910,-0.508,-1.492,-0.375
4/28/2023 17:43:11.920,-0.043,-0.867,-0.316
4/28/2023 17:43:11.930,0.199,-0.445,-0.262
4/28/2023 17:43:11.940,0.23,-0.285,-0.27
4/28/2023 17:43:11.950,0.09,-0.289,-0.383
4/28/2023 17:43:11.960,-0.148,-0.5,-0.527
4/28/2023 17:43:11.970,-0.336,-0.836,-0.629
4/28/2023 17:43:11.980,-0.445,-1.262,-0.555
4/28/2023 17:43:11.990,-0.402,-1.578,-0.371
4/28/2023 17:43:12.000,-0.352,-1.605,-0.293
4/28/2023 17:43:12.010,-0.313,-1.379,-0.32
4/28/2023 17:43:12.020,-0.316,-1.113,-0.41
4/28/2023 17:43:12.030,-0.273,-0.926,-0.348
4/28/2023 17:43:12.040,-0.219,-0.789,-0.242
4/28/2023 17:43:12.050,-0.172,-0.594,-0.168
4/28/2023 17:43:12.060,-0.184,-0.43,-0.164
4/28/2023 17:43:12.070,-0.203,-0.316,-0.156
4/28/2023 17:43:12.080,-0.227,-0.293,-0.145
4/28/2023 17:43:12.090,-0.199,-0.352,-0.117
4/28/2023 17:43:12.100,-0.152,-0.453,-0.051
4/28/2023 17:43:12.110,-0.141,-0.547,-0.02
4/28/2023 17:43:12.120,-0.156,-0.625,-0.031
4/28/2023 17:43:12.130,-0.133,-0.656,-0.051
4/28/2023 17:43:12.140,-0.055,-0.66,-0.09
4/28/2023 17:43:12.150,0.023,-0.633,-0.121
4/28/2023 17:43:12.160,0.07,-0.582,-0.137
4/28/2023 17:43:12.170,0.07,-0.539,-0.117
4/28/2023 17:43:12.180,0.016,-0.535,-0.117
4/28/2023 17:43:12.190,-0.07,-0.578,-0.102
4/28/2023 17:43:12.200,-0.145,-0.645,-0.07
4/28/2023 17:43:12.210,-0.211,-0.75,-0.066
4/28/2023 17:43:12.220,-0.266,-0.879,-0.09
4/28/2023 17:43:12.230,-0.309,-1.004,-0.133
4/28/2023 17:43:12.240,-0.332,-1.141,-0.156
4/28/2023 17:43:12.250,-0.348,-1.273,-0.137
4/28/2023 17:43:12.260,-0.34,-1.387,-0.105
4/28/2023 17:43:12.270,-0.266,-1.512,-0.121
4/28/2023 17:43:12.280,-0.113,-1.598,-0.172
4/28/2023 17:43:12.290,0.148,-1.641,-0.145
4/28/2023 17:43:12.300,0.41,-1.609,-0.145
4/28/2023 17:43:12.310,0.523,-1.527,-0.148
4/28/2023 17:43:12.320,0.324,-1.496,-0.117
4/28/2023 17:43:12.330,-0.086,-1.516,-0.457
4/28/2023 17:43:12.340,-0.461,-1.539,-0.852
4/28/2023 17:43:12.350,-0.613,-1.59,-1.012
4/28/2023 17:43:12.360,-0.625,-1.531,-0.949
4/28/2023 17:43:12.370,-0.551,-1.305,-0.824
4/28/2023 17:43:12.380,-0.492,-1.098,-0.637
4/28/2023 17:43:12.390,-0.508,-0.984,-0.434
4/28/2023 17:43:12.400,-0.566,-0.93,-0.359
4/28/2023 17:43:12.410,-0.625,-0.887,-0.469
4/28/2023 17:43:12.420,-0.605,-0.828,-0.715
4/28/2023 17:43:12.430,-0.523,-0.84,-0.805
4/28/2023 17:43:12.440,-0.445,-0.98,-0.68
4/28/2023 17:43:12.450,-0.434,-1.164,-0.547
4/28/2023 17:43:12.460,-0.445,-1.301,-0.473
4/28/2023 17:43:12.470,-0.402,-1.332,-0.406
4/28/2023 17:43:12.480,-0.344,-1.254,-0.313
4/28/2023 17:43:12.490,-0.297,-1.082,-0.246
4/28/2023 17:43:12.500,-0.25,-0.902,-0.242
4/28/2023 17:43:12.510,-0.145,-0.734,-0.227
4/28/2023 17:43:12.520,-0.055,-0.582,-0.172
4/28/2023 17:43:12.530,-0.012,-0.457,-0.109
4/28/2023 17:43:12.540,0.02,-0.355,-0.066
4/28/2023 17:43:12.550,0.008,-0.301,-0.059
4/28/2023 17:43:12.560,-0.012,-0.297,-0.063
4/28/2023 17:43:12.570,-0.031,-0.32,-0.094
4/28/2023 17:43:12.580,-0.043,-0.387,-0.094
4/28/2023 17:43:12.590,-0.066,-0.488,-0.031
4/28/2023 17:43:12.600,-0.113,-0.602,0.043
4/28/2023 17:43:12.610,-0.156,-0.711,0.074
4/28/2023 17:43:12.620,-0.16,-0.766,0.086
4/28/2023 17:43:12.630,-0.117,-0.766,0.082
4/28/2023 17:43:12.640,-0.055,-0.727,0.055
4/28/2023 17:43:12.650,-0.008,-0.699,0.023
4/28/2023 17:43:12.660,-0.004,-0.707,-0.027
4/28/2023 17:43:12.670,-0.008,-0.746,-0.039
4/28/2023 17:43:12.680,-0.027,-0.832,-0.02
4/28/2023 17:43:12.690,-0.102,-0.93,-0.035
4/28/2023 17:43:12.700,-0.238,-1.008,-0.125
4/28/2023 17:43:12.710,-0.41,-1.094,-0.223
4/28/2023 17:43:12.720,-0.539,-1.25,-0.227
4/28/2023 17:43:12.730,-0.641,-1.52,-0.195
4/28/2023 17:43:12.740,-0.738,-1.773,-0.16
4/28/2023 17:43:12.750,-0.766,-1.805,-0.055
4/28/2023 17:43:12.760,-0.629,-1.617,0.07
4/28/2023 17:43:12.770,-0.387,-1.418,0.148
4/28/2023 17:43:12.780,-0.195,-1.223,-0.031
4/28/2023 17:43:12.790,-0.188,-1.012,-0.516
4/28/2023 17:43:12.800,-0.516,-0.98,-0.859
4/28/2023 17:43:12.810,-1.023,-1.215,-1.313
4/28/2023 17:43:12.820,-1.512,-1.703,-1.48
4/28/2023 17:43:12.830,-1.574,-2.148,-1.113
4/28/2023 17:43:12.840,-1.109,-2.027,-0.605
4/28/2023 17:43:12.850,-0.453,-1.43,-0.406
4/28/2023 17:43:12.860,0.059,-0.801,-0.301
4/28/2023 17:43:12.870,0.285,-0.406,-0.203
4/28/2023 17:43:12.880,0.238,-0.242,-0.242
4/28/2023 17:43:12.890,0.055,-0.258,-0.391
4/28/2023 17:43:12.900,-0.184,-0.488,-0.551
4/28/2023 17:43:12.910,-0.301,-0.805,-0.602
4/28/2023 17:43:12.920,-0.324,-1.148,-0.484
4/28/2023 17:43:12.930,-0.336,-1.426,-0.355
4/28/2023 17:43:12.940,-0.355,-1.477,-0.289
4/28/2023 17:43:12.950,-0.359,-1.289,-0.348
4/28/2023 17:43:12.960,-0.285,-1.055,-0.328
4/28/2023 17:43:12.970,-0.195,-0.879,-0.227
4/28/2023 17:43:12.980,-0.156,-0.734,-0.16
4/28/2023 17:43:12.990,-0.168,-0.598,-0.148
4/28/2023 17:43:13.000,-0.191,-0.469,-0.148
4/28/2023 17:43:13.010,-0.18,-0.383,-0.152
4/28/2023 17:43:13.020,-0.148,-0.336,-0.168
4/28/2023 17:43:13.030,-0.086,-0.41,-0.164
4/28/2023 17:43:13.040,-0.043,-0.555,-0.125
4/28/2023 17:43:13.050,-0.078,-0.691,-0.09
4/28/2023 17:43:13.060,-0.137,-0.75,-0.105
4/28/2023 17:43:13.070,-0.176,-0.738,-0.121
4/28/2023 17:43:13.080,-0.188,-0.676,-0.105
4/28/2023 17:43:13.090,-0.18,-0.598,-0.094
4/28/2023 17:43:13.100,-0.156,-0.535,-0.094
4/28/2023 17:43:13.110,-0.133,-0.504,-0.098
4/28/2023 17:43:13.120,-0.129,-0.504,-0.117
4/28/2023 17:43:13.130,-0.152,-0.551,-0.137
4/28/2023 17:43:13.140,-0.188,-0.637,-0.117
4/28/2023 17:43:13.150,-0.219,-0.766,-0.102
4/28/2023 17:43:13.160,-0.223,-0.906,-0.137
4/28/2023 17:43:13.170,-0.195,-1.059,-0.176
4/28/2023 17:43:13.180,-0.184,-1.23,-0.148
4/28/2023 17:43:13.190,-0.172,-1.352,-0.109
4/28/2023 17:43:13.200,-0.148,-1.398,-0.141
4/28/2023 17:43:13.210,-0.059,-1.438,-0.18
4/28/2023 17:43:13.220,0.09,-1.496,-0.172
4/28/2023 17:43:13.230,0.246,-1.547,-0.125
4/28/2023 17:43:13.240,0.324,-1.574,-0.094
4/28/2023 17:43:13.250,0.289,-1.617,-0.031
4/28/2023 17:43:13.260,0.063,-1.602,-0.004
4/28/2023 17:43:13.270,-0.352,-1.555,-0.082
4/28/2023 17:43:13.280,-0.734,-1.441,-0.48
4/28/2023 17:43:13.290,-0.871,-1.309,-0.879
4/28/2023 17:43:13.300,-0.641,-1.277,-0.938
4/28/2023 17:43:13.310,-0.207,-1.219,-0.871
4/28/2023 17:43:13.320,0.094,-1.016,-0.789
4/28/2023 17:43:13.330,0.051,-0.867,-0.668
4/28/2023 17:43:13.340,-0.215,-0.883,-0.512
4/28/2023 17:43:13.350,-0.574,-1.023,-0.535
4/28/2023 17:43:13.360,-0.848,-1.129,-0.598
4/28/2023 17:43:13.370,-0.883,-1.063,-0.637
4/28/2023 17:43:13.380,-0.781,-0.965,-0.703
4/28/2023 17:43:13.390,-0.645,-0.961,-0.695
4/28/2023 17:43:13.400,-0.531,-1.008,-0.578
4/28/2023 17:43:13.410,-0.461,-1.074,-0.453
4/28/2023 17:43:13.420,-0.387,-1.148,-0.398
4/28/2023 17:43:13.430,-0.289,-1.184,-0.359
4/28/2023 17:43:13.440,-0.211,-1.145,-0.254
4/28/2023 17:43:13.450,-0.164,-1.031,-0.184
4/28/2023 17:43:13.460,-0.152,-0.883,-0.199
4/28/2023 17:43:13.470,-0.117,-0.73,-0.234
4/28/2023 17:43:13.480,-0.082,-0.621,-0.219
4/28/2023 17:43:13.490,-0.035,-0.523,-0.16
4/28/2023 17:43:13.500,-0.051,-0.48,-0.094
4/28/2023 17:43:13.510,-0.059,-0.469,-0.051
4/28/2023 17:43:13.520,-0.047,-0.461,-0.047
4/28/2023 17:43:13.530,-0.027,-0.438,-0.047
4/28/2023 17:43:13.540,-0.008,-0.418,-0.023
4/28/2023 17:43:13.550,-0.016,-0.426,0.035
4/28/2023 17:43:13.560,-0.074,-0.465,0.059
4/28/2023 17:43:13.570,-0.148,-0.539,0.047
4/28/2023 17:43:13.580,-0.199,-0.598,0.016
4/28/2023 17:43:13.590,-0.207,-0.637,-0.016
4/28/2023 17:43:13.600,-0.164,-0.668,0
4/28/2023 17:43:13.610,-0.121,-0.695,0
4/28/2023 17:43:13.620,-0.102,-0.738,-0.023
4/28/2023 17:43:13.630,-0.109,-0.82,-0.008
4/28/2023 17:43:13.640,-0.117,-0.938,0.008
4/28/2023 17:43:13.650,-0.152,-1.043,-0.086
4/28/2023 17:43:13.660,-0.223,-1.117,-0.223
4/28/2023 17:43:13.670,-0.336,-1.223,-0.297
4/28/2023 17:43:13.680,-0.457,-1.387,-0.266
4/28/2023 17:43:13.690,-0.602,-1.641,-0.172
4/28/2023 17:43:13.700,-0.746,-1.848,-0.078
4/28/2023 17:43:13.710,-0.785,-1.836,-0.012
4/28/2023 17:43:13.720,-0.652,-1.652,0.055
4/28/2023 17:43:13.730,-0.371,-1.449,0.098
4/28/2023 17:43:13.740,-0.211,-1.238,-0.23
4/28/2023 17:43:13.750,-0.266,-0.977,-0.621
4/28/2023 17:43:13.760,-0.656,-0.977,-0.895
4/28/2023 17:43:13.770,-1.133,-1.23,-1.262
4/28/2023 17:43:13.780,-1.496,-1.664,-1.227
4/28/2023 17:43:13.790,-1.469,-1.938,-0.777
4/28/2023 17:43:13.800,-0.996,-1.633,-0.508
4/28/2023 17:43:13.810,-0.449,-1.094,-0.406
4/28/2023 17:43:13.820,-0.066,-0.676,-0.32
4/28/2023 17:43:13.830,0.109,-0.43,-0.305
4/28/2023 17:43:13.840,0.086,-0.34,-0.348
4/28/2023 17:43:13.850,-0.113,-0.508,-0.52
4/28/2023 17:43:13.860,-0.25,-0.777,-0.672
4/28/2023 17:43:13.870,-0.305,-1.098,-0.598
4/28/2023 17:43:13.880,-0.309,-1.344,-0.43
4/28/2023 17:43:13.890,-0.328,-1.391,-0.367
4/28/2023 17:43:13.900,-0.355,-1.27,-0.387
4/28/2023 17:43:13.910,-0.297,-1.094,-0.348
4/28/2023 17:43:13.920,-0.227,-0.957,-0.262
4/28/2023 17:43:13.930,-0.184,-0.813,-0.195
4/28/2023 17:43:13.940,-0.188,-0.648,-0.156
4/28/2023 17:43:13.950,-0.184,-0.512,-0.133
4/28/2023 17:43:13.960,-0.176,-0.406,-0.129
4/28/2023 17:43:13.970,-0.152,-0.336,-0.129
4/28/2023 17:43:13.980,-0.109,-0.344,-0.133
4/28/2023 17:43:13.990,-0.066,-0.43,-0.145
4/28/2023 17:43:14.000,-0.074,-0.566,-0.125
4/28/2023 17:43:14.010,-0.113,-0.703,-0.09
4/28/2023 17:43:14.020,-0.16,-0.781,-0.09
4/28/2023 17:43:14.030,-0.195,-0.777,-0.117
4/28/2023 17:43:14.040,-0.18,-0.699,-0.121
4/28/2023 17:43:14.050,-0.125,-0.602,-0.109
4/28/2023 17:43:14.060,-0.059,-0.551,-0.082
4/28/2023 17:43:14.070,0.004,-0.551,-0.063
4/28/2023 17:43:14.080,0.02,-0.602,-0.066
4/28/2023 17:43:14.090,-0.016,-0.691,-0.066
4/28/2023 17:43:14.100,-0.082,-0.809,-0.086
4/28/2023 17:43:14.110,-0.145,-0.922,-0.152
4/28/2023 17:43:14.120,-0.172,-1.047,-0.23
4/28/2023 17:43:14.130,-0.16,-1.152,-0.223
4/28/2023 17:43:14.140,-0.172,-1.234,-0.172
4/28/2023 17:43:14.150,-0.184,-1.273,-0.141
4/28/2023 17:43:14.160,-0.164,-1.297,-0.156
4/28/2023 17:43:14.170,-0.078,-1.355,-0.156
4/28/2023 17:43:14.180,0.07,-1.43,-0.105
4/28/2023 17:43:14.190,0.227,-1.492,-0.023
4/28/2023 17:43:14.200,0.301,-1.516,-0.051
4/28/2023 17:43:14.210,0.184,-1.504,-0.078
4/28/2023 17:43:14.220,-0.141,-1.516,-0.078
4/28/2023 17:43:14.230,-0.586,-1.5,-0.379
4/28/2023 17:43:14.240,-0.82,-1.379,-0.918
4/28/2023 17:43:14.250,-0.707,-1.363,-1.078
4/28/2023 17:43:14.260,-0.297,-1.328,-0.906
4/28/2023 17:43:14.270,0.008,-1.129,-0.797
4/28/2023 17:43:14.280,0.004,-0.902,-0.793
4/28/2023 17:43:14.290,-0.238,-0.852,-0.633
4/28/2023 17:43:14.300,-0.543,-0.992,-0.52
4/28/2023 17:43:14.310,-0.816,-1.141,-0.613
4/28/2023 17:43:14.320,-0.898,-1.121,-0.707
4/28/2023 17:43:14.330,-0.828,-1.016,-0.719
4/28/2023 17:43:14.340,-0.664,-0.957,-0.676
4/28/2023 17:43:14.350,-0.512,-0.98,-0.547
4/28/2023 17:43:14.360,-0.391,-1.059,-0.426
4/28/2023 17:43:14.370,-0.293,-1.129,-0.348
4/28/2023 17:43:14.380,-0.191,-1.152,-0.309
4/28/2023 17:43:14.390,-0.121,-1.113,-0.262
4/28/2023 17:43:14.400,-0.094,-1.027,-0.199
4/28/2023 17:43:14.410,-0.082,-0.926,-0.168
4/28/2023 17:43:14.420,-0.07,-0.816,-0.172
4/28/2023 17:43:14.430,-0.023,-0.715,-0.152
4/28/2023 17:43:14.440,0.012,-0.602,-0.145
4/28/2023 17:43:14.450,0.004,-0.5,-0.137
4/28/2023 17:43:14.460,-0.043,-0.441,-0.09
4/28/2023 17:43:14.470,-0.066,-0.402,-0.047
4/28/2023 17:43:14.480,-0.07,-0.391,-0.039
4/28/2023 17:43:14.490,-0.055,-0.371,-0.055
4/28/2023 17:43:14.500,-0.066,-0.375,-0.063
4/28/2023 17:43:14.510,-0.117,-0.434,-0.027
4/28/2023 17:43:14.520,-0.188,-0.535,0.02
4/28/2023 17:43:14.530,-0.211,-0.617,0.023
4/28/2023 17:43:14.540,-0.207,-0.645,-0.016
4/28/2023 17:43:14.550,-0.18,-0.629,-0.023
4/28/2023 17:43:14.560,-0.137,-0.645,-0.027
4/28/2023 17:43:14.570,-0.129,-0.703,-0.039
4/28/2023 17:43:14.580,-0.203,-0.816,-0.039
4/28/2023 17:43:14.590,-0.293,-0.98,0.004
4/28/2023 17:43:14.600,-0.348,-1.125,-0.012
4/28/2023 17:43:14.610,-0.371,-1.223,-0.129
4/28/2023 17:43:14.620,-0.391,-1.289,-0.254
4/28/2023 17:43:14.630,-0.406,-1.379,-0.27
4/28/2023 17:43:14.640,-0.41,-1.539,-0.184
4/28/2023 17:43:14.650,-0.465,-1.645,-0.098
4/28/2023 17:43:14.660,-0.605,-1.523,-0.133
4/28/2023 17:43:14.670,-0.75,-1.285,-0.355
4/28/2023 17:43:14.680,-0.891,-1.152,-0.617
4/28/2023 17:43:14.690,-1.016,-1.27,-0.836
4/28/2023 17:43:14.700,-1.117,-1.613,-1.051
4/28/2023 17:43:14.710,-1.141,-2.129,-1.02
4/28/2023 17:43:14.720,-0.855,-2.512,-0.539
4/28/2023 17:43:14.730,-0.457,-2.215,-0.297
4/28/2023 17:43:14.740,-0.133,-1.32,-0.324
4/28/2023 17:43:14.750,0.063,-0.559,-0.395
4/28/2023 17:43:14.760,0.035,-0.137,-0.422
4/28/2023 17:43:14.770,-0.148,0.004,-0.422
4/28/2023 17:43:14.780,-0.414,-0.16,-0.563
4/28/2023 17:43:14.790,-0.594,-0.52,-0.648
4/28/2023 17:43:14.800,-0.625,-0.992,-0.645
4/28/2023 17:43:14.810,-0.48,-1.402,-0.516
4/28/2023 17:43:14.820,-0.254,-1.543,-0.348
4/28/2023 17:43:14.830,-0.18,-1.355,-0.32
4/28/2023 17:43:14.840,-0.168,-1.074,-0.363
4/28/2023 17:43:14.850,-0.141,-0.867,-0.332
4/28/2023 17:43:14.860,-0.152,-0.773,-0.273
4/28/2023 17:43:14.870,-0.191,-0.73,-0.207
4/28/2023 17:43:14.880,-0.223,-0.68,-0.195
4/28/2023 17:43:14.890,-0.199,-0.609,-0.172
4/28/2023 17:43:14.900,-0.152,-0.512,-0.176
4/28/2023 17:43:14.910,-0.094,-0.426,-0.203
4/28/2023 17:43:14.920,-0.027,-0.363,-0.234
4/28/2023 17:43:14.930,0.016,-0.367,-0.23
4/28/2023 17:43:14.940,0,-0.457,-0.195
4/28/2023 17:43:14.950,-0.09,-0.609,-0.141
4/28/2023 17:43:14.960,-0.176,-0.73,-0.121
4/28/2023 17:43:14.970,-0.238,-0.762,-0.133
4/28/2023 17:43:14.980,-0.23,-0.707,-0.137
4/28/2023 17:43:14.990,-0.203,-0.633,-0.113
4/28/2023 17:43:15.000,-0.191,-0.574,-0.078
4/28/2023 17:43:15.010,-0.168,-0.586,-0.063
4/28/2023 17:43:15.020,-0.152,-0.637,-0.066
4/28/2023 17:43:15.030,-0.145,-0.699,-0.07
4/28/2023 17:43:15.040,-0.16,-0.738,-0.105
4/28/2023 17:43:15.050,-0.188,-0.762,-0.152
4/28/2023 17:43:15.060,-0.219,-0.816,-0.207
4/28/2023 17:43:15.070,-0.238,-0.926,-0.219
4/28/2023 17:43:15.080,-0.242,-1.09,-0.18
4/28/2023 17:43:15.090,-0.23,-1.234,-0.129
4/28/2023 17:43:15.100,-0.184,-1.309,-0.137
4/28/2023 17:43:15.110,-0.07,-1.355,-0.16
4/28/2023 17:43:15.120,0.109,-1.449,-0.129
4/28/2023 17:43:15.130,0.313,-1.57,-0.074
4/28/2023 17:43:15.140,0.438,-1.602,-0.117
4/28/2023 17:43:15.150,0.43,-1.559,-0.141
4/28/2023 17:43:15.160,0.215,-1.566,-0.168
4/28/2023 17:43:15.170,-0.176,-1.578,-0.5
4/28/2023 17:43:15.180,-0.488,-1.539,-0.848
4/28/2023 17:43:15.190,-0.582,-1.516,-0.984
4/28/2023 17:43:15.200,-0.512,-1.449,-1.004
4/28/2023 17:43:15.210,-0.383,-1.332,-0.848
4/28/2023 17:43:15.220,-0.367,-1.246,-0.625
4/28/2023 17:43:15.230,-0.477,-1.09,-0.477
4/28/2023 17:43:15.240,-0.617,-0.957,-0.383
4/28/2023 17:43:15.250,-0.688,-0.871,-0.41
4/28/2023 17:43:15.260,-0.652,-0.852,-0.641
4/28/2023 17:43:15.270,-0.527,-0.883,-0.832
4/28/2023 17:43:15.280,-0.418,-0.957,-0.754
4/28/2023 17:43:15.290,-0.391,-1.098,-0.523
4/28/2023 17:43:15.300,-0.445,-1.266,-0.445
4/28/2023 17:43:15.310,-0.461,-1.34,-0.469
4/28/2023 17:43:15.320,-0.371,-1.289,-0.422
4/28/2023 17:43:15.330,-0.27,-1.129,-0.285
4/28/2023 17:43:15.340,-0.223,-0.945,-0.211
4/28/2023 17:43:15.350,-0.195,-0.773,-0.199
4/28/2023 17:43:15.360,-0.137,-0.652,-0.184
4/28/2023 17:43:15.370,-0.082,-0.555,-0.172
4/28/2023 17:43:15.380,-0.047,-0.461,-0.133
4/28/2023 17:43:15.390,-0.043,-0.375,-0.098
4/28/2023 17:43:15.400,-0.051,-0.332,-0.105
4/28/2023 17:43:15.410,-0.074,-0.34,-0.102
4/28/2023 17:43:15.420,-0.098,-0.395,-0.078
4/28/2023 17:43:15.430,-0.133,-0.469,-0.035
4/28/2023 17:43:15.440,-0.176,-0.551,0.016
4/28/2023 17:43:15.450,-0.203,-0.617,0.031
4/28/2023 17:43:15.460,-0.219,-0.633,-0.004
4/28/2023 17:43:15.470,-0.215,-0.609,-0.004
4/28/2023 17:43:15.480,-0.191,-0.586,0.008
4/28/2023 17:43:15.490,-0.133,-0.625,0.063
4/28/2023 17:43:15.500,-0.066,-0.73,0.113
4/28/2023 17:43:15.510,-0.016,-0.863,0.125
4/28/2023 17:43:15.520,0.023,-0.941,0.051
4/28/2023 17:43:15.530,0.031,-0.965,-0.02
4/28/2023 17:43:15.540,-0.02,-0.973,-0.121
4/28/2023 17:43:15.550,-0.098,-0.957,-0.176
4/28/2023 17:43:15.560,-0.234,-1.012,-0.199
4/28/2023 17:43:15.570,-0.383,-1.145,-0.203
4/28/2023 17:43:15.580,-0.543,-1.41,-0.188
4/28/2023 17:43:15.590,-0.688,-1.695,-0.16
4/28/2023 17:43:15.600,-0.723,-1.828,-0.109
4/28/2023 17:43:15.610,-0.602,-1.703,-0.012
4/28/2023 17:43:15.620,-0.449,-1.43,-0.055
4/28/2023 17:43:15.630,-0.465,-1.121,-0.488
4/28/2023 17:43:15.640,-0.719,-0.984,-0.84
4/28/2023 17:43:15.650,-1.09,-1.211,-1.133
4/28/2023 17:43:15.660,-1.426,-1.719,-1.34
4/28/2023 17:43:15.670,-1.383,-2.234,-0.895
4/28/2023 17:43:15.680,-0.922,-2.18,-0.387
4/28/2023 17:43:15.690,-0.336,-1.449,-0.277
4/28/2023 17:43:15.700,0.063,-0.668,-0.348
4/28/2023 17:43:15.710,0.242,-0.262,-0.359
4/28/2023 17:43:15.720,0.215,-0.086,-0.332
4/28/2023 17:43:15.730,-0.066,-0.164,-0.477
4/28/2023 17:43:15.740,-0.363,-0.465,-0.629
4/28/2023 17:43:15.750,-0.586,-0.918,-0.711
4/28/2023 17:43:15.760,-0.617,-1.426,-0.637
4/28/2023 17:43:15.770,-0.484,-1.723,-0.395
4/28/2023 17:43:15.780,-0.352,-1.605,-0.297
4/28/2023 17:43:15.790,-0.277,-1.293,-0.336
4/28/2023 17:43:15.800,-0.164,-0.996,-0.324
4/28/2023 17:43:15.810,-0.074,-0.801,-0.242
4/28/2023 17:43:15.820,-0.086,-0.703,-0.203
4/28/2023 17:43:15.830,-0.133,-0.621,-0.191
4/28/2023 17:43:15.840,-0.109,-0.492,-0.168
4/28/2023 17:43:15.850,-0.07,-0.379,-0.176
4/28/2023 17:43:15.860,-0.031,-0.309,-0.191
4/28/2023 17:43:15.870,-0.031,-0.332,-0.191
4/28/2023 17:43:15.880,-0.055,-0.469,-0.18
4/28/2023 17:43:15.890,-0.117,-0.645,-0.129
4/28/2023 17:43:15.900,-0.195,-0.766,-0.098
4/28/2023 17:43:15.910,-0.23,-0.793,-0.082
4/28/2023 17:43:15.920,-0.199,-0.746,-0.063
4/28/2023 17:43:15.930,-0.141,-0.656,-0.043
4/28/2023 17:43:15.940,-0.105,-0.559,-0.082
4/28/2023 17:43:15.950,-0.094,-0.477,-0.125
4/28/2023 17:43:15.960,-0.094,-0.434,-0.137
4/28/2023 17:43:15.970,-0.094,-0.477,-0.098
4/28/2023 17:43:15.980,-0.117,-0.617,-0.059
4/28/2023 17:43:15.990,-0.172,-0.793,-0.043
4/28/2023 17:43:16.000,-0.246,-0.961,-0.066
4/28/2023 17:43:16.010,-0.293,-1.082,-0.102
4/28/2023 17:43:16.020,-0.309,-1.16,-0.148
4/28/2023 17:43:16.030,-0.281,-1.203,-0.172
4/28/2023 17:43:16.040,-0.234,-1.227,-0.207
4/28/2023 17:43:16.050,-0.156,-1.242,-0.227
4/28/2023 17:43:16.060,-0.039,-1.336,-0.188
4/28/2023 17:43:16.070,0.109,-1.465,-0.133
4/28/2023 17:43:16.080,0.262,-1.57,-0.07
4/28/2023 17:43:16.090,0.352,-1.566,-0.09
4/28/2023 17:43:16.100,0.289,-1.527,-0.113
4/28/2023 17:43:16.110,-0.031,-1.531,-0.141
4/28/2023 17:43:16.120,-0.461,-1.504,-0.473
4/28/2023 17:43:16.130,-0.691,-1.398,-0.922
4/28/2023 17:43:16.140,-0.57,-1.367,-1.039
4/28/2023 17:43:16.150,-0.273,-1.313,-0.914
4/28/2023 17:43:16.160,-0.09,-1.191,-0.789
4/28/2023 17:43:16.170,-0.148,-1.094,-0.688
4/28/2023 17:43:16.180,-0.359,-1.121,-0.535
4/28/2023 17:43:16.190,-0.609,-1.211,-0.492
4/28/2023 17:43:16.200,-0.75,-1.176,-0.578
4/28/2023 17:43:16.210,-0.688,-1.027,-0.652
4/28/2023 17:43:16.220,-0.547,-0.91,-0.738
4/28/2023 17:43:16.230,-0.445,-0.902,-0.707
4/28/2023 17:43:16.240,-0.426,-0.973,-0.578
4/28/2023 17:43:16.250,-0.438,-1.082,-0.488
4/28/2023 17:43:16.260,-0.426,-1.145,-0.445
4/28/2023 17:43:16.270,-0.363,-1.117,-0.379
4/28/2023 17:43:16.280,-0.301,-1,-0.281
4/28/2023 17:43:16.290,-0.266,-0.855,-0.234
4/28/2023 17:43:16.300,-0.234,-0.734,-0.203
4/28/2023 17:43:16.310,-0.211,-0.668,-0.184
4/28/2023 17:43:16.320,-0.164,-0.609,-0.184
4/28/2023 17:43:16.330,-0.129,-0.559,-0.172
4/28/2023 17:43:16.340,-0.094,-0.531,-0.121
4/28/2023 17:43:16.350,-0.055,-0.527,-0.07
4/28/2023 17:43:16.360,-0.027,-0.527,-0.047
4/28/2023 17:43:16.370,-0.012,-0.504,-0.051
4/28/2023 17:43:16.380,-0.027,-0.465,-0.059
4/28/2023 17:43:16.390,-0.066,-0.461,-0.063
4/28/2023 17:43:16.400,-0.117,-0.512,-0.035
4/28/2023 17:43:16.410,-0.168,-0.609,0.039
4/28/2023 17:43:16.420,-0.18,-0.707,0.098
4/28/2023 17:43:16.430,-0.141,-0.773,0.109
4/28/2023 17:43:16.440,-0.094,-0.789,0.051
4/28/2023 17:43:16.450,-0.012,-0.785,0.004
4/28/2023 17:43:16.460,0.086,-0.809,0.004
4/28/2023 17:43:16.470,0.168,-0.855,-0.023
4/28/2023 17:43:16.480,0.164,-0.902,-0.121
4/28/2023 17:43:16.490,0.074,-0.887,-0.219
4/28/2023 17:43:16.500,-0.094,-0.863,-0.27
4/28/2023 17:43:16.510,-0.324,-0.957,-0.254
4/28/2023 17:43:16.520,-0.605,-1.207,-0.191
4/28/2023 17:43:16.530,-0.875,-1.57,-0.137
4/28/2023 17:43:16.540,-1.027,-1.836,-0.109
4/28/2023 17:43:16.550,-0.902,-1.816,-0.023
4/28/2023 17:43:16.560,-0.594,-1.594,0.07
4/28/2023 17:43:16.570,-0.23,-1.313,0.109
4/28/2023 17:43:16.580,-0.105,-0.984,-0.273
4/28/2023 17:43:16.590,-0.281,-0.695,-0.781
4/28/2023 17:43:16.600,-0.828,-0.727,-1.117
4/28/2023 17:43:16.610,-1.418,-1.148,-1.477
4/28/2023 17:43:16.620,-1.73,-1.898,-1.461
4/28/2023 17:43:16.630,-1.395,-2.344,-0.848
4/28/2023 17:43:16.640,-0.652,-1.977,-0.445
4/28/2023 17:43:16.650,-0.066,-1.242,-0.418
4/28/2023 17:43:16.660,0.273,-0.633,-0.453
4/28/2023 17:43:16.670,0.285,-0.355,-0.43
4/28/2023 17:43:16.680,0.16,-0.23,-0.422
4/28/2023 17:43:16.690,-0.102,-0.344,-0.547
4/28/2023 17:43:16.700,-0.355,-0.68,-0.695
4/28/2023 17:43:16.710,-0.555,-1.152,-0.664
4/28/2023 17:43:16.720,-0.582,-1.57,-0.418
4/28/2023 17:43:16.730,-0.434,-1.59,-0.27
4/28/2023 17:43:16.740,-0.301,-1.262,-0.313
4/28/2023 17:43:16.750,-0.281,-1.027,-0.371
4/28/2023 17:43:16.760,-0.195,-0.867,-0.301
4/28/2023 17:43:16.770,-0.102,-0.727,-0.227
4/28/2023 17:43:16.780,-0.078,-0.613,-0.172
4/28/2023 17:43:16.790,-0.09,-0.531,-0.148
4/28/2023 17:43:16.800,-0.121,-0.48,-0.148
4/28/2023 17:43:16.810,-0.145,-0.473,-0.156
4/28/2023 17:43:16.820,-0.141,-0.516,-0.152
4/28/2023 17:43:16.830,-0.117,-0.566,-0.145
4/28/2023 17:43:16.840,-0.102,-0.617,-0.129
4/28/2023 17:43:16.850,-0.105,-0.633,-0.121
4/28/2023 17:43:16.860,-0.109,-0.645,-0.117
4/28/2023 17:43:16.870,-0.121,-0.637,-0.121
4/28/2023 17:43:16.880,-0.137,-0.598,-0.152
4/28/2023 17:43:16.890,-0.141,-0.543,-0.148
4/28/2023 17:43:16.900,-0.137,-0.5,-0.105
4/28/2023 17:43:16.910,-0.137,-0.5,-0.082
4/28/2023 17:43:16.920,-0.148,-0.555,-0.078
4/28/2023 17:43:16.930,-0.172,-0.648,-0.094
4/28/2023 17:43:16.940,-0.199,-0.746,-0.113
4/28/2023 17:43:16.950,-0.23,-0.836,-0.145
4/28/2023 17:43:16.960,-0.262,-0.906,-0.195
4/28/2023 17:43:16.970,-0.289,-0.988,-0.234
4/28/2023 17:43:16.980,-0.309,-1.102,-0.207
4/28/2023 17:43:16.990,-0.316,-1.266,-0.16
4/28/2023 17:43:17.000,-0.273,-1.41,-0.121
4/28/2023 17:43:17.010,-0.125,-1.496,-0.152
4/28/2023 17:43:17.020,0.117,-1.535,-0.156
4/28/2023 17:43:17.030,0.402,-1.559,-0.094
4/28/2023 17:43:17.040,0.574,-1.527,-0.074
4/28/2023 17:43:17.050,0.398,-1.52,-0.215
4/28/2023 17:43:17.060,0.02,-1.559,-0.605
4/28/2023 17:43:17.070,-0.344,-1.668,-0.984
4/28/2023 17:43:17.080,-0.508,-1.758,-1.172
4/28/2023 17:43:17.090,-0.445,-1.598,-1.113
4/28/2023 17:43:17.100,-0.359,-1.332,-0.91
4/28/2023 17:43:17.110,-0.375,-1.145,-0.695
4/28/2023 17:43:17.120,-0.523,-1.055,-0.48
4/28/2023 17:43:17.130,-0.746,-1.012,-0.438
4/28/2023 17:43:17.140,-0.871,-0.949,-0.559
4/28/2023 17:43:17.150,-0.77,-0.852,-0.676
4/28/2023 17:43:17.160,-0.578,-0.801,-0.742
4/28/2023 17:43:17.170,-0.426,-0.824,-0.711
4/28/2023 17:43:17.180,-0.391,-0.898,-0.582
4/28/2023 17:43:17.190,-0.41,-1.012,-0.477
4/28/2023 17:43:17.200,-0.367,-1.145,-0.461
4/28/2023 17:43:17.210,-0.25,-1.238,-0.449
4/28/2023 17:43:17.220,-0.172,-1.227,-0.309
4/28/2023 17:43:17.230,-0.168,-1.09,-0.266
4/28/2023 17:43:17.240,-0.168,-0.91,-0.293
4/28/2023 17:43:17.250,-0.145,-0.758,-0.281
4/28/2023 17:43:17.260,-0.098,-0.629,-0.23
4/28/2023 17:43:17.270,-0.051,-0.535,-0.156
4/28/2023 17:43:17.280,-0.027,-0.453,-0.098
4/28/2023 17:43:17.290,-0.031,-0.391,-0.082
4/28/2023 17:43:17.300,-0.023,-0.344,-0.082
4/28/2023 17:43:17.310,-0.023,-0.309,-0.09
4/28/2023 17:43:17.320,-0.047,-0.32,-0.07
4/28/2023 17:43:17.330,-0.098,-0.406,-0.02
4/28/2023 17:43:17.340,-0.152,-0.527,-0.004
4/28/2023 17:43:17.350,-0.199,-0.641,0.004
4/28/2023 17:43:17.360,-0.191,-0.723,0.039
4/28/2023 17:43:17.370,-0.137,-0.75,0.059
4/28/2023 17:43:17.380,-0.059,-0.727,0.059
4/28/2023 17:43:17.390,0.004,-0.68,0.043
4/28/2023 17:43:17.400,0.035,-0.672,0
4/28/2023 17:43:17.410,0.031,-0.719,-0.043
4/28/2023 17:43:17.420,-0.02,-0.797,-0.078
4/28/2023 17:43:17.430,-0.109,-0.871,-0.156
4/28/2023 17:43:17.440,-0.242,-0.945,-0.242
4/28/2023 17:43:17.450,-0.355,-1.063,-0.277
4/28/2023 17:43:17.460,-0.43,-1.254,-0.223
4/28/2023 17:43:17.470,-0.535,-1.473,-0.195
4/28/2023 17:43:17.480,-0.68,-1.648,-0.219
4/28/2023 17:43:17.490,-0.813,-1.75,-0.145
4/28/2023 17:43:17.500,-0.836,-1.742,0.008
4/28/2023 17:43:17.510,-0.695,-1.621,0.086
4/28/2023 17:43:17.520,-0.539,-1.406,-0.117
4/28/2023 17:43:17.530,-0.457,-1.168,-0.574
4/28/2023 17:43:17.540,-0.59,-1.184,-0.742
4/28/2023 17:43:17.550,-0.852,-1.391,-1.008
4/28/2023 17:43:17.560,-1.156,-1.688,-1.191
4/28/2023 17:43:17.570,-1.223,-1.891,-0.887
4/28/2023 17:43:17.580,-0.934,-1.68,-0.543
4/28/2023 17:43:17.590,-0.488,-1.219,-0.434
4/28/2023 17:43:17.600,-0.133,-0.82,-0.352
4/28/2023 17:43:17.610,0.078,-0.578,-0.281
4/28/2023 17:43:17.620,0.113,-0.449,-0.309
4/28/2023 17:43:17.630,0.008,-0.402,-0.414
4/28/2023 17:43:17.640,-0.172,-0.539,-0.496
4/28/2023 17:43:17.650,-0.262,-0.805,-0.52
4/28/2023 17:43:17.660,-0.273,-1.117,-0.422
4/28/2023 17:43:17.670,-0.297,-1.355,-0.336
4/28/2023 17:43:17.680,-0.332,-1.367,-0.32
4/28/2023 17:43:17.690,-0.328,-1.16,-0.34
4/28/2023 17:43:17.700,-0.293,-0.953,-0.309
4/28/2023 17:43:17.710,-0.266,-0.785,-0.238
4/28/2023 17:43:17.720,-0.266,-0.652,-0.195
4/28/2023 17:43:17.730,-0.266,-0.527,-0.176
4/28/2023 17:43:17.740,-0.262,-0.402,-0.168
4/28/2023 17:43:17.750,-0.234,-0.316,-0.172
4/28/2023 17:43:17.760,-0.156,-0.281,-0.191
4/28/2023 17:43:17.770,-0.074,-0.336,-0.195
4/28/2023 17:43:17.780,-0.031,-0.461,-0.188
4/28/2023 17:43:17.790,-0.09,-0.613,-0.148
4/28/2023 17:43:17.800,-0.18,-0.73,-0.141
4/28/2023 17:43:17.810,-0.227,-0.789,-0.141
4/28/2023 17:43:17.820,-0.211,-0.762,-0.137
4/28/2023 17:43:17.830,-0.164,-0.668,-0.121
4/28/2023 17:43:17.840,-0.109,-0.574,-0.117
4/28/2023 17:43:17.850,-0.047,-0.527,-0.094
4/28/2023 17:43:17.860,0.016,-0.539,-0.055
4/28/2023 17:43:17.870,0.039,-0.578,-0.047
4/28/2023 17:43:17.880,-0.008,-0.609,-0.102
4/28/2023 17:43:17.890,-0.117,-0.648,-0.199
4/28/2023 17:43:17.900,-0.227,-0.742,-0.23
4/28/2023 17:43:17.910,-0.297,-0.93,-0.176
4/28/2023 17:43:17.920,-0.324,-1.199,-0.109
4/28/2023 17:43:17.930,-0.277,-1.441,-0.102
4/28/2023 17:43:17.940,-0.137,-1.559,-0.121
4/28/2023 17:43:17.950,0.078,-1.566,-0.133
4/28/2023 17:43:17.960,0.301,-1.547,-0.148
4/28/2023 17:43:17.970,0.461,-1.512,-0.156
4/28/2023 17:43:17.980,0.484,-1.492,-0.078
4/28/2023 17:43:17.990,0.332,-1.547,-0.004
4/28/2023 17:43:18.000,-0.02,-1.621,0.012
4/28/2023 17:43:18.010,-0.457,-1.621,-0.305
4/28/2023 17:43:18.020,-0.68,-1.473,-0.902
4/28/2023 17:43:18.030,-0.559,-1.52,-1.086
4/28/2023 17:43:18.040,-0.309,-1.602,-0.906
4/28/2023 17:43:18.050,-0.211,-1.398,-0.859
4/28/2023 17:43:18.060,-0.234,-1.094,-0.898
4/28/2023 17:43:18.070,-0.344,-0.918,-0.703
4/28/2023 17:43:18.080,-0.477,-0.957,-0.445
4/28/2023 17:43:18.090,-0.703,-1.047,-0.41
4/28/2023 17:43:18.100,-0.82,-0.973,-0.543
4/28/2023 17:43:18.110,-0.754,-0.836,-0.645
4/28/2023 17:43:18.120,-0.637,-0.773,-0.762
4/28/2023 17:43:18.130,-0.516,-0.824,-0.793
4/28/2023 17:43:18.140,-0.391,-0.941,-0.66
4/28/2023 17:43:18.150,-0.266,-1.113,-0.473
4/28/2023 17:43:18.160,-0.168,-1.273,-0.332
4/28/2023 17:43:18.170,-0.141,-1.32,-0.223
4/28/2023 17:43:18.180,-0.16,-1.188,-0.23
4/28/2023 17:43:18.190,-0.191,-0.988,-0.242
4/28/2023 17:43:18.200,-0.191,-0.816,-0.223
4/28/2023 17:43:18.210,-0.148,-0.664,-0.176
4/28/2023 17:43:18.220,-0.086,-0.551,-0.117
4/28/2023 17:43:18.230,-0.055,-0.477,-0.051
4/28/2023 17:43:18.240,-0.031,-0.438,-0.047
4/28/2023 17:43:18.250,-0.016,-0.418,-0.078
4/28/2023 17:43:18.260,0.02,-0.391,-0.117
4/28/2023 17:43:18.270,0.063,-0.371,-0.133
4/28/2023 17:43:18.280,0.078,-0.402,-0.105
4/28/2023 17:43:18.290,0.035,-0.488,-0.035
4/28/2023 17:43:18.300,-0.043,-0.605,0.023
4/28/2023 17:43:18.310,-0.125,-0.703,0.047
4/28/2023 17:43:18.320,-0.148,-0.762,0.043
4/28/2023 17:43:18.330,-0.117,-0.75,0.039
4/28/2023 17:43:18.340,-0.059,-0.699,0.027
4/28/2023 17:43:18.350,0,-0.68,0.047
4/28/2023 17:43:18.360,0.023,-0.723,0.016
4/28/2023 17:43:18.370,-0.004,-0.801,-0.063
4/28/2023 17:43:18.380,-0.094,-0.891,-0.16
4/28/2023 17:43:18.390,-0.23,-1,-0.301
4/28/2023 17:43:18.400,-0.398,-1.16,-0.344
4/28/2023 17:43:18.410,-0.594,-1.43,-0.281
4/28/2023 17:43:18.420,-0.805,-1.691,-0.242
4/28/2023 17:43:18.430,-0.93,-1.82,-0.184
4/28/2023 17:43:18.440,-0.84,-1.754,-0.008
4/28/2023 17:43:18.450,-0.617,-1.605,0.074
4/28/2023 17:43:18.460,-0.41,-1.371,-0.207
4/28/2023 17:43:18.470,-0.363,-1.176,-0.633
4/28/2023 17:43:18.480,-0.539,-1.191,-0.789
4/28/2023 17:43:18.490,-0.867,-1.418,-1.094
4/28/2023 17:43:18.500,-1.152,-1.727,-1.246
4/28/2023 17:43:18.510,-1.117,-1.922,-0.816
4/28/2023 17:43:18.520,-0.789,-1.711,-0.504
4/28/2023 17:43:18.530,-0.375,-1.207,-0.395
4/28/2023 17:43:18.540,-0.07,-0.758,-0.348
4/28/2023 17:43:18.550,0.043,-0.48,-0.367
4/28/2023 17:43:18.560,-0.035,-0.414,-0.438
4/28/2023 17:43:18.570,-0.211,-0.527,-0.492
4/28/2023 17:43:18.580,-0.348,-0.746,-0.531
4/28/2023 17:43:18.590,-0.355,-0.984,-0.508
4/28/2023 17:43:18.600,-0.254,-1.125,-0.402
4/28/2023 17:43:18.610,-0.23,-1.141,-0.355
4/28/2023 17:43:18.620,-0.293,-1.129,-0.383
4/28/2023 17:43:18.630,-0.301,-1.086,-0.348
4/28/2023 17:43:18.640,-0.238,-1.004,-0.266
4/28/2023 17:43:18.650,-0.195,-0.875,-0.203
4/28/2023 17:43:18.660,-0.203,-0.707,-0.199
4/28/2023 17:43:18.670,-0.211,-0.543,-0.223
4/28/2023 17:43:18.680,-0.176,-0.41,-0.219
4/28/2023 17:43:18.690,-0.098,-0.355,-0.195
4/28/2023 17:43:18.700,-0.027,-0.34,-0.164
4/28/2023 17:43:18.710,0,-0.379,-0.133
4/28/2023 17:43:18.720,-0.031,-0.488,-0.148
4/28/2023 17:43:18.730,-0.121,-0.625,-0.137
4/28/2023 17:43:18.740,-0.199,-0.738,-0.125
4/28/2023 17:43:18.750,-0.246,-0.785,-0.109
4/28/2023 17:43:18.760,-0.23,-0.734,-0.098
4/28/2023 17:43:18.770,-0.18,-0.633,-0.094
4/28/2023 17:43:18.780,-0.121,-0.535,-0.086
4/28/2023 17:43:18.790,-0.063,-0.48,-0.094
4/28/2023 17:43:18.800,-0.031,-0.484,-0.113
4/28/2023 17:43:18.810,-0.059,-0.547,-0.129
4/28/2023 17:43:18.820,-0.129,-0.648,-0.137
4/28/2023 17:43:18.830,-0.23,-0.75,-0.156
4/28/2023 17:43:18.840,-0.32,-0.855,-0.188
4/28/2023 17:43:18.850,-0.383,-1.031,-0.156
4/28/2023 17:43:18.860,-0.395,-1.246,-0.109
4/28/2023 17:43:18.870,-0.344,-1.398,-0.133
4/28/2023 17:43:18.880,-0.191,-1.465,-0.199
4/28/2023 17:43:18.890,0.055,-1.5,-0.23
4/28/2023 17:43:18.900,0.348,-1.586,-0.164
4/28/2023 17:43:18.910,0.559,-1.609,-0.098
4/28/2023 17:43:18.920,0.602,-1.543,-0.125
4/28/2023 17:43:18.930,0.426,-1.527,-0.094
4/28/2023 17:43:18.940,-0.031,-1.598,-0.156
4/28/2023 17:43:18.950,-0.484,-1.629,-0.652
4/28/2023 17:43:18.960,-0.637,-1.547,-1.059
4/28/2023 17:43:18.970,-0.453,-1.582,-0.953
4/28/2023 17:43:18.980,-0.273,-1.473,-0.852
4/28/2023 17:43:18.990,-0.211,-1.199,-0.887
4/28/2023 17:43:19.000,-0.289,-0.988,-0.816
4/28/2023 17:43:19.010,-0.406,-0.973,-0.574
4/28/2023 17:43:19.020,-0.574,-1.055,-0.434
4/28/2023 17:43:19.030,-0.723,-1.047,-0.523
4/28/2023 17:43:19.040,-0.711,-0.941,-0.633
4/28/2023 17:43:19.050,-0.633,-0.863,-0.723
4/28/2023 17:43:19.060,-0.574,-0.867,-0.711
4/28/2023 17:43:19.070,-0.516,-0.965,-0.609
4/28/2023 17:43:19.080,-0.41,-1.102,-0.449
4/28/2023 17:43:19.090,-0.289,-1.207,-0.344
4/28/2023 17:43:19.100,-0.188,-1.199,-0.293
4/28/2023 17:43:19.110,-0.141,-1.078,-0.258
4/28/2023 17:43:19.120,-0.113,-0.898,-0.25
4/28/2023 17:43:19.130,-0.094,-0.73,-0.242
4/28/2023 17:43:19.140,-0.086,-0.578,-0.223
4/28/2023 17:43:19.150,-0.078,-0.453,-0.176
4/28/2023 17:43:19.160,-0.082,-0.375,-0.141
4/28/2023 17:43:19.170,-0.105,-0.359,-0.098
4/28/2023 17:43:19.180,-0.098,-0.371,-0.055
4/28/2023 17:43:19.190,-0.066,-0.375,-0.055
4/28/2023 17:43:19.200,-0.023,-0.355,-0.055
4/28/2023 17:43:19.210,0,-0.359,-0.031
4/28/2023 17:43:19.220,-0.02,-0.438,0.02
4/28/2023 17:43:19.230,-0.078,-0.578,0.031
4/28/2023 17:43:19.240,-0.152,-0.699,0.004
4/28/2023 17:43:19.250,-0.203,-0.77,-0.023
4/28/2023 17:43:19.260,-0.176,-0.797,0.004
4/28/2023 17:43:19.270,-0.102,-0.793,0.016
4/28/2023 17:43:19.280,-0.035,-0.813,-0.023
4/28/2023 17:43:19.290,-0.012,-0.891,-0.023
4/28/2023 17:43:19.300,-0.02,-0.973,-0.031
4/28/2023 17:43:19.310,-0.09,-0.98,-0.184
4/28/2023 17:43:19.320,-0.246,-0.973,-0.309
4/28/2023 17:43:19.330,-0.422,-1.098,-0.258
4/28/2023 17:43:19.340,-0.648,-1.395,-0.191
4/28/2023 17:43:19.350,-0.875,-1.715,-0.219
4/28/2023 17:43:19.360,-0.941,-1.859,-0.18
4/28/2023 17:43:19.370,-0.754,-1.816,0.027
4/28/2023 17:43:19.380,-0.477,-1.66,0.066
4/28/2023 17:43:19.390,-0.316,-1.398,-0.25
4/28/2023 17:43:19.400,-0.391,-1.121,-0.727
4/28/2023 17:43:19.410,-0.695,-1.051,-0.953
4/28/2023 17:43:19.420,-1.074,-1.305,-1.152
4/28/2023 17:43:19.430,-1.289,-1.688,-1.055
4/28/2023 17:43:19.440,-1.207,-1.914,-0.691
4/28/2023 17:43:19.450,-0.816,-1.66,-0.438
4/28/2023 17:43:19.460,-0.367,-1.164,-0.391
4/28/2023 17:43:19.470,-0.039,-0.707,-0.375
4/28/2023 17:43:19.480,0.121,-0.426,-0.371
4/28/2023 17:43:19.490,0.063,-0.316,-0.453
4/28/2023 17:43:19.500,-0.148,-0.398,-0.539
4/28/2023 17:43:19.510,-0.336,-0.664,-0.625
4/28/2023 17:43:19.520,-0.406,-1.035,-0.594
4/28/2023 17:43:19.530,-0.371,-1.348,-0.461
4/28/2023 17:43:19.540,-0.34,-1.422,-0.391
4/28/2023 17:43:19.550,-0.34,-1.262,-0.391
4/28/2023 17:43:19.560,-0.324,-1.098,-0.391
4/28/2023 17:43:19.570,-0.227,-0.961,-0.285
4/28/2023 17:43:19.580,-0.188,-0.793,-0.238
4/28/2023 17:43:19.590,-0.199,-0.641,-0.219
4/28/2023 17:43:19.600,-0.188,-0.531,-0.195
4/28/2023 17:43:19.610,-0.125,-0.43,-0.168
4/28/2023 17:43:19.620,-0.051,-0.34,-0.168
4/28/2023 17:43:19.630,-0.012,-0.293,-0.191
4/28/2023 17:43:19.640,-0.008,-0.336,-0.199
4/28/2023 17:43:19.650,-0.035,-0.461,-0.18
4/28/2023 17:43:19.660,-0.117,-0.625,-0.148
4/28/2023 17:43:19.670,-0.203,-0.762,-0.121
4/28/2023 17:43:19.680,-0.262,-0.848,-0.121
4/28/2023 17:43:19.690,-0.258,-0.824,-0.117
4/28/2023 17:43:19.700,-0.18,-0.711,-0.113
4/28/2023 17:43:19.710,-0.074,-0.59,-0.109
4/28/2023 17:43:19.720,-0.004,-0.516,-0.121
4/28/2023 17:43:19.730,0.008,-0.492,-0.117
4/28/2023 17:43:19.740,-0.031,-0.551,-0.09
4/28/2023 17:43:19.750,-0.086,-0.652,-0.059
4/28/2023 17:43:19.760,-0.137,-0.73,-0.109
4/28/2023 17:43:19.770,-0.16,-0.777,-0.199
4/28/2023 17:43:19.780,-0.164,-0.875,-0.242
4/28/2023 17:43:19.790,-0.199,-1.035,-0.223
4/28/2023 17:43:19.800,-0.258,-1.25,-0.168
4/28/2023 17:43:19.810,-0.277,-1.441,-0.098
4/28/2023 17:43:19.820,-0.215,-1.555,-0.086
4/28/2023 17:43:19.830,-0.012,-1.539,-0.125
4/28/2023 17:43:19.840,0.254,-1.508,-0.105
4/28/2023 17:43:19.850,0.453,-1.52,-0.063
4/28/2023 17:43:19.860,0.531,-1.488,-0.047
4/28/2023 17:43:19.870,0.426,-1.449,-0.066
4/28/2023 17:43:19.880,0.004,-1.477,-0.145
4/28/2023 17:43:19.890,-0.527,-1.488,-0.566
4/28/2023 17:43:19.900,-0.758,-1.41,-1.094
4/28/2023 17:43:19.910,-0.574,-1.426,-1.074
4/28/2023 17:43:19.920,-0.32,-1.355,-0.875
4/28/2023 17:43:19.930,-0.215,-1.141,-0.926
4/28/2023 17:43:19.940,-0.32,-0.969,-0.93
4/28/2023 17:43:19.950,-0.492,-0.98,-0.699
4/28/2023 17:43:19.960,-0.727,-1.129,-0.512
4/28/2023 17:43:19.970,-0.891,-1.109,-0.555
4/28/2023 17:43:19.980,-0.879,-0.938,-0.625
4/28/2023 17:43:19.990,-0.793,-0.813,-0.691
4/28/2023 17:43:20.000,-0.695,-0.797,-0.711
4/28/2023 17:43:20.010,-0.531,-0.898,-0.605
4/28/2023 17:43:20.020,-0.352,-1.078,-0.457
4/28/2023 17:43:20.030,-0.199,-1.25,-0.359
4/28/2023 17:43:20.040,-0.094,-1.293,-0.301
4/28/2023 17:43:20.050,-0.047,-1.168,-0.27
4/28/2023 17:43:20.060,-0.023,-0.965,-0.293
4/28/2023 17:43:20.070,0.012,-0.789,-0.281
4/28/2023 17:43:20.080,0.012,-0.652,-0.238
4/28/2023 17:43:20.090,-0.012,-0.547,-0.18
4/28/2023 17:43:20.100,-0.066,-0.461,-0.156
4/28/2023 17:43:20.110,-0.125,-0.414,-0.125
4/28/2023 17:43:20.120,-0.137,-0.402,-0.094
4/28/2023 17:43:20.130,-0.094,-0.41,-0.09
4/28/2023 17:43:20.140,-0.043,-0.445,-0.098
4/28/2023 17:43:20.150,-0.016,-0.504,-0.047
4/28/2023 17:43:20.160,-0.02,-0.566,0.012
4/28/2023 17:43:20.170,-0.063,-0.629,0.02
4/28/2023 17:43:20.180,-0.125,-0.668,-0.004
4/28/2023 17:43:20.190,-0.148,-0.699,-0.012
4/28/2023 17:43:20.200,-0.098,-0.715,-0.004
4/28/2023 17:43:20.210,-0.047,-0.723,-0.004
4/28/2023 17:43:20.220,-0.023,-0.754,-0.004
4/28/2023 17:43:20.230,-0.039,-0.809,0
4/28/2023 17:43:20.240,-0.07,-0.887,-0.023
4/28/2023 17:43:20.250,-0.121,-0.957,-0.074
4/28/2023 17:43:20.260,-0.211,-1.039,-0.137
4/28/2023 17:43:20.270,-0.316,-1.164,-0.203
4/28/2023 17:43:20.280,-0.449,-1.309,-0.281
4/28/2023 17:43:20.290,-0.59,-1.449,-0.297
4/28/2023 17:43:20.300,-0.68,-1.551,-0.215
4/28/2023 17:43:20.310,-0.719,-1.586,-0.074
4/28/2023 17:43:20.320,-0.648,-1.539,0.07
4/28/2023 17:43:20.330,-0.43,-1.496,0.188
4/28/2023 17:43:20.340,-0.184,-1.402,0.082
4/28/2023 17:43:20.350,-0.137,-1.172,-0.422
4/28/2023 17:43:20.360,-0.391,-1.004,-0.789
4/28/2023 17:43:20.370,-0.848,-1.082,-1.094
4/28/2023 17:43:20.380,-1.301,-1.344,-1.359
4/28/2023 17:43:20.390,-1.539,-1.715,-1.16
4/28/2023 17:43:20.400,-1.289,-1.766,-0.758
4/28/2023 17:43:20.410,-0.734,-1.469,-0.531
4/28/2023 17:43:20.420,-0.199,-1.047,-0.418
4/28/2023 17:43:20.430,0.129,-0.73,-0.266
4/28/2023 17:43:20.440,0.227,-0.523,-0.266
4/28/2023 17:43:20.450,0.137,-0.414,-0.398
4/28/2023 17:43:20.460,-0.043,-0.5,-0.527
4/28/2023 17:43:20.470,-0.207,-0.742,-0.621
4/28/2023 17:43:20.480,-0.32,-1.098,-0.516
4/28/2023 17:43:20.490,-0.367,-1.406,-0.363
4/28/2023 17:43:20.500,-0.391,-1.484,-0.316
4/28/2023 17:43:20.510,-0.363,-1.273,-0.359
4/28/2023 17:43:20.520,-0.273,-1.027,-0.367
4/28/2023 17:43:20.530,-0.18,-0.828,-0.285
4/28/2023 17:43:20.540,-0.141,-0.645,-0.215
4/28/2023 17:43:20.550,-0.145,-0.477,-0.199
4/28/2023 17:43:20.560,-0.152,-0.355,-0.195
4/28/2023 17:43:20.570,-0.145,-0.289,-0.176
4/28/2023 17:43:20.580,-0.152,-0.32,-0.164
4/28/2023 17:43:20.590,-0.176,-0.445,-0.172
4/28/2023 17:43:20.600,-0.227,-0.594,-0.156
4/28/2023 17:43:20.610,-0.266,-0.723,-0.113
4/28/2023 17:43:20.620,-0.25,-0.805,-0.047
4/28/2023 17:43:20.630,-0.184,-0.805,-0.031
4/28/2023 17:43:20.640,-0.098,-0.723,-0.09
4/28/2023 17:43:20.650,-0.039,-0.602,-0.148
4/28/2023 17:43:20.660,-0.004,-0.492,-0.152
4/28/2023 17:43:20.670,0.012,-0.449,-0.109
4/28/2023 17:43:20.680,0.004,-0.461,-0.047
4/28/2023 17:43:20.690,-0.039,-0.508,-0.027
4/28/2023 17:43:20.700,-0.109,-0.578,-0.043
4/28/2023 17:43:20.710,-0.215,-0.676,-0.09
4/28/2023 17:43:20.720,-0.305,-0.816,-0.168
4/28/2023 17:43:20.730,-0.348,-1.016,-0.258
4/28/2023 17:43:20.740,-0.336,-1.281,-0.309
4/28/2023 17:43:20.750,-0.301,-1.535,-0.305
4/28/2023 17:43:20.760,-0.25,-1.707,-0.23
4/28/2023 17:43:20.770,-0.137,-1.691,-0.266
4/28/2023 17:43:20.780,0.098,-1.566,-0.273
4/28/2023 17:43:20.790,0.371,-1.484,-0.141
4/28/2023 17:43:20.800,0.527,-1.426,-0.051
4/28/2023 17:43:20.810,0.406,-1.344,-0.063
4/28/2023 17:43:20.820,-0.004,-1.34,-0.32
4/28/2023 17:43:20.830,-0.379,-1.434,-0.742
4/28/2023 17:43:20.840,-0.566,-1.633,-0.922
4/28/2023 17:43:20.850,-0.531,-1.695,-0.906
4/28/2023 17:43:20.860,-0.438,-1.469,-0.906
4/28/2023 17:43:20.870,-0.371,-1.195,-0.867
4/28/2023 17:43:20.880,-0.398,-1.043,-0.672
4/28/2023 17:43:20.890,-0.5,-1.035,-0.469
4/28/2023 17:43:20.900,-0.664,-1.059,-0.484
4/28/2023 17:43:20.910,-0.668,-0.965,-0.598
4/28/2023 17:43:20.920,-0.543,-0.832,-0.711
4/28/2023 17:43:20.930,-0.418,-0.766,-0.773
4/28/2023 17:43:20.940,-0.391,-0.828,-0.703
4/28/2023 17:43:20.950,-0.422,-0.973,-0.586
4/28/2023 17:43:20.960,-0.453,-1.16,-0.484
4/28/2023 17:43:20.970,-0.402,-1.277,-0.398
4/28/2023 17:43:20.980,-0.313,-1.234,-0.297
4/28/2023 17:43:20.990,-0.242,-1.027,-0.254
4/28/2023 17:43:21.000,-0.199,-0.816,-0.277
4/28/2023 17:43:21.010,-0.113,-0.645,-0.281
4/28/2023 17:43:21.020,-0.02,-0.52,-0.242
4/28/2023 17:43:21.030,0.031,-0.449,-0.18
4/28/2023 17:43:21.040,0.043,-0.43,-0.117
4/28/2023 17:43:21.050,0.023,-0.469,-0.074
4/28/2023 17:43:21.060,0.008,-0.512,-0.063
4/28/2023 17:43:21.070,0,-0.527,-0.059
4/28/2023 17:43:21.080,-0.016,-0.5,-0.07
4/28/2023 17:43:21.090,-0.063,-0.473,-0.086
4/28/2023 17:43:21.100,-0.145,-0.5,-0.09
4/28/2023 17:43:21.110,-0.246,-0.586,-0.047
4/28/2023 17:43:21.120,-0.324,-0.691,0
4/28/2023 17:43:21.130,-0.352,-0.773,0.027
4/28/2023 17:43:21.140,-0.281,-0.809,0.066
4/28/2023 17:43:21.150,-0.152,-0.813,0.074
4/28/2023 17:43:21.160,-0.043,-0.816,0.031
4/28/2023 17:43:21.170,0.031,-0.828,-0.047
4/28/2023 17:43:21.180,0.047,-0.82,-0.176
4/28/2023 17:43:21.190,0,-0.84,-0.285
4/28/2023 17:43:21.200,-0.145,-0.938,-0.273
4/28/2023 17:43:21.210,-0.391,-1.117,-0.242
4/28/2023 17:43:21.220,-0.645,-1.359,-0.203
4/28/2023 17:43:21.230,-0.82,-1.594,-0.121
4/28/2023 17:43:21.240,-0.848,-1.727,-0.02
4/28/2023 17:43:21.250,-0.766,-1.66,0.039
4/28/2023 17:43:21.260,-0.578,-1.438,-0.043
4/28/2023 17:43:21.270,-0.484,-1.195,-0.414
4/28/2023 17:43:21.280,-0.59,-1.125,-0.715
4/28/2023 17:43:21.290,-0.785,-1.238,-0.957
4/28/2023 17:43:21.300,-1.047,-1.527,-1.168
4/28/2023 17:43:21.310,-1.148,-1.941,-0.977
4/28/2023 17:43:21.320,-0.988,-2.168,-0.434
4/28/2023 17:43:21.330,-0.625,-1.742,-0.309
4/28/2023 17:43:21.340,-0.27,-1.051,-0.391
4/28/2023 17:43:21.350,0.004,-0.531,-0.492
4/28/2023 17:43:21.360,0.063,-0.289,-0.512
4/28/2023 17:43:21.370,-0.066,-0.336,-0.461
4/28/2023 17:43:21.380,-0.27,-0.59,-0.531
4/28/2023 17:43:21.390,-0.449,-0.957,-0.633
4/28/2023 17:43:21.400,-0.496,-1.246,-0.59
4/28/2023 17:43:21.410,-0.332,-1.309,-0.398
4/28/2023 17:43:21.420,-0.164,-1.199,-0.324
4/28/2023 17:43:21.430,-0.121,-1.051,-0.336
4/28/2023 17:43:21.440,-0.105,-0.945,-0.344
4/28/2023 17:43:21.450,-0.07,-0.852,-0.285
4/28/2023 17:43:21.460,-0.055,-0.75,-0.184
4/28/2023 17:43:21.470,-0.105,-0.613,-0.152
4/28/2023 17:43:21.480,-0.199,-0.48,-0.168
4/28/2023 17:43:21.490,-0.262,-0.383,-0.195
4/28/2023 17:43:21.500,-0.277,-0.348,-0.199
4/28/2023 17:43:21.510,-0.199,-0.375,-0.172
4/28/2023 17:43:21.520,-0.109,-0.461,-0.137
4/28/2023 17:43:21.530,-0.074,-0.566,-0.129
4/28/2023 17:43:21.540,-0.113,-0.664,-0.137
4/28/2023 17:43:21.550,-0.164,-0.719,-0.172
4/28/2023 17:43:21.560,-0.188,-0.73,-0.16
4/28/2023 17:43:21.570,-0.172,-0.676,-0.125
4/28/2023 17:43:21.580,-0.145,-0.617,-0.105
4/28/2023 17:43:21.590,-0.125,-0.574,-0.117
4/28/2023 17:43:21.600,-0.113,-0.566,-0.133
4/28/2023 17:43:21.610,-0.098,-0.617,-0.137
4/28/2023 17:43:21.620,-0.105,-0.699,-0.152
4/28/2023 17:43:21.630,-0.145,-0.813,-0.184
4/28/2023 17:43:21.640,-0.195,-0.938,-0.215
4/28/2023 17:43:21.650,-0.234,-1.051,-0.203
4/28/2023 17:43:21.660,-0.258,-1.133,-0.148
4/28/2023 17:43:21.670,-0.254,-1.141,-0.105
4/28/2023 17:43:21.680,-0.223,-1.133,-0.145
4/28/2023 17:43:21.690,-0.133,-1.207,-0.184
4/28/2023 17:43:21.700,0.039,-1.387,-0.129
4/28/2023 17:43:21.710,0.273,-1.574,-0.043
4/28/2023 17:43:21.720,0.453,-1.625,-0.086
4/28/2023 17:43:21.730,0.586,-1.508,-0.184
4/28/2023 17:43:21.740,0.566,-1.414,-0.156
4/28/2023 17:43:21.750,0.262,-1.383,-0.125
4/28/2023 17:43:21.760,-0.246,-1.359,-0.41
4/28/2023 17:43:21.770,-0.59,-1.23,-0.871
4/28/2023 17:43:21.780,-0.637,-1.219,-1.035
4/28/2023 17:43:21.790,-0.438,-1.227,-0.859
4/28/2023 17:43:21.800,-0.313,-1.105,-0.859
4/28/2023 17:43:21.810,-0.391,-0.98,-0.891
4/28/2023 17:43:21.820,-0.609,-0.996,-0.742
4/28/2023 17:43:21.830,-0.832,-1.164,-0.609
4/28/2023 17:43:21.840,-1.004,-1.297,-0.676
4/28/2023 17:43:21.850,-0.934,-1.199,-0.711
4/28/2023 17:43:21.860,-0.773,-1.051,-0.742
4/28/2023 17:43:21.870,-0.609,-0.977,-0.742
4/28/2023 17:43:21.880,-0.477,-0.996,-0.668
4/28/2023 17:43:21.890,-0.395,-1.078,-0.559
4/28/2023 17:43:21.900,-0.34,-1.152,-0.465
4/28/2023 17:43:21.910,-0.273,-1.16,-0.379
4/28/2023 17:43:21.920,-0.215,-1.063,-0.301
4/28/2023 17:43:21.930,-0.176,-0.914,-0.266
4/28/2023 17:43:21.940,-0.156,-0.777,-0.199
4/28/2023 17:43:21.950,-0.164,-0.68,-0.172
4/28/2023 17:43:21.960,-0.137,-0.586,-0.16
4/28/2023 17:43:21.970,-0.098,-0.527,-0.113
4/28/2023 17:43:21.980,-0.055,-0.512,-0.047
4/28/2023 17:43:21.990,0.008,-0.508,-0.027
4/28/2023 17:43:22.000,0.07,-0.5,-0.059
4/28/2023 17:43:22.010,0.109,-0.484,-0.105
4/28/2023 17:43:22.020,0.086,-0.469,-0.117
4/28/2023 17:43:22.030,0.043,-0.488,-0.098
4/28/2023 17:43:22.040,-0.039,-0.551,-0.047
4/28/2023 17:43:22.050,-0.113,-0.645,0.023
4/28/2023 17:43:22.060,-0.148,-0.73,0.074
4/28/2023 17:43:22.070,-0.148,-0.785,0.109
4/28/2023 17:43:22.080,-0.105,-0.801,0.137
4/28/2023 17:43:22.090,-0.066,-0.813,0.078
4/28/2023 17:43:22.100,-0.07,-0.816,-0.004
4/28/2023 17:43:22.110,-0.043,-0.816,-0.082
4/28/2023 17:43:22.120,-0.027,-0.813,-0.16
4/28/2023 17:43:22.130,-0.102,-0.863,-0.203
4/28/2023 17:43:22.140,-0.238,-1.012,-0.207
4/28/2023 17:43:22.150,-0.395,-1.242,-0.223
4/28/2023 17:43:22.160,-0.566,-1.496,-0.262
4/28/2023 17:43:22.170,-0.695,-1.68,-0.223
4/28/2023 17:43:22.180,-0.754,-1.711,-0.172
4/28/2023 17:43:22.190,-0.738,-1.613,-0.094
4/28/2023 17:43:22.200,-0.555,-1.512,0.066
4/28/2023 17:43:22.210,-0.34,-1.453,0.152
4/28/2023 17:43:22.220,-0.191,-1.27,-0.031
4/28/2023 17:43:22.230,-0.211,-0.984,-0.492
4/28/2023 17:43:22.240,-0.563,-0.805,-0.785
4/28/2023 17:43:22.250,-1.059,-0.867,-1.164
4/28/2023 17:43:22.260,-1.57,-1.277,-1.441
4/28/2023 17:43:22.270,-1.645,-1.797,-1.16
4/28/2023 17:43:22.280,-1.109,-1.844,-0.609
4/28/2023 17:43:22.290,-0.406,-1.461,-0.418
4/28/2023 17:43:22.300,0.098,-0.961,-0.324
4/28/2023 17:43:22.310,0.313,-0.594,-0.301
4/28/2023 17:43:22.320,0.289,-0.422,-0.363
4/28/2023 17:43:22.330,0.141,-0.441,-0.438
4/28/2023 17:43:22.340,-0.012,-0.609,-0.512
4/28/2023 17:43:22.350,-0.125,-0.883,-0.512
4/28/2023 17:43:22.360,-0.242,-1.191,-0.48
4/28/2023 17:43:22.370,-0.359,-1.383,-0.445
4/28/2023 17:43:22.380,-0.461,-1.359,-0.445
4/28/2023 17:43:22.390,-0.52,-1.203,-0.457
4/28/2023 17:43:22.400,-0.488,-0.98,-0.402
4/28/2023 17:43:22.410,-0.387,-0.754,-0.273
4/28/2023 17:43:22.420,-0.309,-0.586,-0.211
4/28/2023 17:43:22.430,-0.273,-0.461,-0.211
4/28/2023 17:43:22.440,-0.215,-0.379,-0.184
4/28/2023 17:43:22.450,-0.141,-0.367,-0.16
4/28/2023 17:43:22.460,-0.098,-0.426,-0.172
4/28/2023 17:43:22.470,-0.102,-0.535,-0.164
4/28/2023 17:43:22.480,-0.129,-0.641,-0.148
4/28/2023 17:43:22.490,-0.148,-0.703,-0.109
4/28/2023 17:43:22.500,-0.164,-0.711,-0.086
4/28/2023 17:43:22.510,-0.16,-0.656,-0.098
4/28/2023 17:43:22.520,-0.137,-0.559,-0.129
4/28/2023 17:43:22.530,-0.113,-0.473,-0.164
4/28/2023 17:43:22.540,-0.105,-0.441,-0.145
4/28/2023 17:43:22.550,-0.109,-0.445,-0.09
4/28/2023 17:43:22.560,-0.156,-0.5,-0.039
4/28/2023 17:43:22.570,-0.227,-0.582,-0.063
4/28/2023 17:43:22.580,-0.293,-0.707,-0.113
4/28/2023 17:43:22.590,-0.316,-0.863,-0.199
4/28/2023 17:43:22.600,-0.293,-1.004,-0.234
4/28/2023 17:43:22.610,-0.23,-1.188,-0.188
4/28/2023 17:43:22.620,-0.16,-1.371,-0.141
4/28/2023 17:43:22.630,-0.074,-1.516,-0.137
4/28/2023 17:43:22.640,0.055,-1.582,-0.18
4/28/2023 17:43:22.650,0.262,-1.574,-0.207
4/28/2023 17:43:22.660,0.473,-1.566,-0.113
4/28/2023 17:43:22.670,0.547,-1.504,-0.113
4/28/2023 17:43:22.680,0.367,-1.441,-0.172
4/28/2023 17:43:22.690,-0.098,-1.457,-0.379
4/28/2023 17:43:22.700,-0.512,-1.508,-0.742
4/28/2023 17:43:22.710,-0.723,-1.594,-0.98
4/28/2023 17:43:22.720,-0.668,-1.617,-0.973
4/28/2023 17:43:22.730,-0.496,-1.41,-0.871
4/28/2023 17:43:22.740,-0.395,-1.168,-0.746
4/28/2023 17:43:22.750,-0.445,-1.016,-0.582
4/28/2023 17:43:22.760,-0.59,-0.973,-0.492
4/28/2023 17:43:22.770,-0.738,-0.965,-0.551
4/28/2023 17:43:22.780,-0.719,-0.906,-0.711
4/28/2023 17:43:22.790,-0.59,-0.871,-0.809
4/28/2023 17:43:22.800,-0.441,-0.875,-0.793
4/28/2023 17:43:22.810,-0.395,-0.957,-0.668
4/28/2023 17:43:22.820,-0.402,-1.105,-0.547
4/28/2023 17:43:22.830,-0.379,-1.246,-0.484
4/28/2023 17:43:22.840,-0.293,-1.297,-0.395
4/28/2023 17:43:22.850,-0.223,-1.211,-0.297
4/28/2023 17:43:22.860,-0.191,-1.031,-0.262
4/28/2023 17:43:22.870,-0.141,-0.828,-0.277
4/28/2023 17:43:22.880,-0.063,-0.691,-0.234
4/28/2023 17:43:22.890,-0.027,-0.641,-0.168
4/28/2023 17:43:22.900,-0.039,-0.586,-0.129
4/28/2023 17:43:22.910,-0.102,-0.523,-0.09
4/28/2023 17:43:22.920,-0.145,-0.469,-0.055
4/28/2023 17:43:22.930,-0.141,-0.438,-0.039
4/28/2023 17:43:22.940,-0.117,-0.41,-0.039
4/28/2023 17:43:22.950,-0.105,-0.395,-0.039
4/28/2023 17:43:22.960,-0.117,-0.387,-0.055
4/28/2023 17:43:22.970,-0.152,-0.441,-0.051
4/28/2023 17:43:22.980,-0.188,-0.547,-0.039
4/28/2023 17:43:22.990,-0.191,-0.641,-0.027
4/28/2023 17:43:23.000,-0.156,-0.688,0.004
4/28/2023 17:43:23.010,-0.078,-0.691,0.027
4/28/2023 17:43:23.020,-0.02,-0.672,0.016
4/28/2023 17:43:23.030,0.008,-0.664,-0.035
4/28/2023 17:43:23.040,-0.004,-0.723,-0.035
4/28/2023 17:43:23.050,-0.004,-0.879,0.016
4/28/2023 17:43:23.060,-0.02,-1.008,-0.063
4/28/2023 17:43:23.070,-0.094,-0.977,-0.266
4/28/2023 17:43:23.080,-0.25,-0.949,-0.344
4/28/2023 17:43:23.090,-0.434,-1.125,-0.266
4/28/2023 17:43:23.100,-0.66,-1.441,-0.211
4/28/2023 17:43:23.110,-0.848,-1.723,-0.168
4/28/2023 17:43:23.120,-0.883,-1.883,-0.035
4/28/2023 17:43:23.130,-0.703,-1.805,0.078
4/28/2023 17:43:23.140,-0.426,-1.57,-0.012
4/28/2023 17:43:23.150,-0.277,-1.273,-0.422
4/28/2023 17:43:23.160,-0.41,-1.094,-0.648
4/28/2023 17:43:23.170,-0.707,-1.188,-0.844
4/28/2023 17:43:23.180,-1.121,-1.504,-1.113
4/28/2023 17:43:23.190,-1.324,-1.914,-0.984
4/28/2023 17:43:23.200,-1.191,-2.082,-0.652
4/28/2023 17:43:23.210,-0.734,-1.613,-0.457
4/28/2023 17:43:23.220,-0.262,-0.965,-0.395
4/28/2023 17:43:23.230,0.066,-0.512,-0.336
4/28/2023 17:43:23.240,0.199,-0.293,-0.324
4/28/2023 17:43:23.250,0.137,-0.254,-0.402
4/28/2023 17:43:23.260,-0.059,-0.445,-0.516
4/28/2023 17:43:23.270,-0.227,-0.734,-0.637
4/28/2023 17:43:23.280,-0.301,-1.039,-0.621
4/28/2023 17:43:23.290,-0.316,-1.273,-0.484
4/28/2023 17:43:23.300,-0.297,-1.359,-0.371
4/28/2023 17:43:23.310,-0.297,-1.301,-0.348
4/28/2023 17:43:23.320,-0.297,-1.188,-0.344
4/28/2023 17:43:23.330,-0.328,-1.059,-0.34
4/28/2023 17:43:23.340,-0.32,-0.883,-0.273
4/28/2023 17:43:23.350,-0.34,-0.719,-0.238
4/28/2023 17:43:23.360,-0.309,-0.559,-0.227
4/28/2023 17:43:23.370,-0.262,-0.457,-0.234
4/28/2023 17:43:23.380,-0.156,-0.426,-0.195
4/28/2023 17:43:23.390,-0.027,-0.43,-0.156
4/28/2023 17:43:23.400,0.059,-0.469,-0.145
4/28/2023 17:43:23.410,0.07,-0.516,-0.125
4/28/2023 17:43:23.420,0.023,-0.543,-0.121
4/28/2023 17:43:23.430,-0.051,-0.559,-0.137
4/28/2023 17:43:23.440,-0.109,-0.559,-0.133
4/28/2023 17:43:23.450,-0.16,-0.578,-0.105
4/28/2023 17:43:23.460,-0.191,-0.594,-0.094
4/28/2023 17:43:23.470,-0.168,-0.586,-0.102
4/28/2023 17:43:23.480,-0.109,-0.57,-0.098
4/28/2023 17:43:23.490,-0.063,-0.582,-0.098
4/28/2023 17:43:23.500,-0.07,-0.629,-0.086
4/28/2023 17:43:23.510,-0.117,-0.727,-0.078
4/28/2023 17:43:23.520,-0.191,-0.836,-0.074
4/28/2023 17:43:23.530,-0.242,-0.91,-0.094
4/28/2023 17:43:23.540,-0.262,-0.941,-0.125
4/28/2023 17:43:23.550,-0.285,-0.977,-0.129
4/28/2023 17:43:23.560,-0.285,-1.043,-0.148
4/28/2023 17:43:23.570,-0.238,-1.156,-0.211
4/28/2023 17:43:23.580,-0.105,-1.352,-0.242
4/28/2023 17:43:23.590,0.109,-1.625,-0.207
4/28/2023 17:43:23.600,0.289,-1.766,-0.184
4/28/2023 17:43:23.610,0.25,-1.68,-0.223
4/28/2023 17:43:23.620,0.078,-1.598,-0.145
4/28/2023 17:43:23.630,-0.23,-1.602,-0.082
4/28/2023 17:43:23.640,-0.539,-1.504,-0.473
4/28/2023 17:43:23.650,-0.645,-1.355,-0.969
4/28/2023 17:43:23.660,-0.426,-1.332,-1.055
4/28/2023 17:43:23.670,-0.16,-1.313,-0.895
4/28/2023 17:43:23.680,-0.117,-1.172,-0.828
4/28/2023 17:43:23.690,-0.297,-1.074,-0.68
4/28/2023 17:43:23.700,-0.508,-1.113,-0.445
4/28/2023 17:43:23.710,-0.684,-1.133,-0.359
4/28/2023 17:43:23.720,-0.758,-0.984,-0.488
4/28/2023 17:43:23.730,-0.684,-0.813,-0.719
4/28/2023 17:43:23.740,-0.535,-0.777,-0.875
4/28/2023 17:43:23.750,-0.434,-0.895,-0.859
4/28/2023 17:43:23.760,-0.348,-1.102,-0.605
4/28/2023 17:43:23.770,-0.297,-1.301,-0.426
4/28/2023 17:43:23.780,-0.25,-1.395,-0.398
4/28/2023 17:43:23.790,-0.18,-1.324,-0.367
4/28/2023 17:43:23.800,-0.137,-1.156,-0.293
4/28/2023 17:43:23.810,-0.156,-0.969,-0.293
4/28/2023 17:43:23.820,-0.18,-0.84,-0.293
4/28/2023 17:43:23.830,-0.191,-0.758,-0.258
4/28/2023 17:43:23.840,-0.184,-0.664,-0.223
4/28/2023 17:43:23.850,-0.16,-0.555,-0.164
4/28/2023 17:43:23.860,-0.133,-0.48,-0.094
4/28/2023 17:43:23.870,-0.109,-0.441,-0.063
4/28/2023 17:43:23.880,-0.09,-0.438,-0.09
4/28/2023 17:43:23.890,-0.078,-0.445,-0.133
4/28/2023 17:43:23.900,-0.117,-0.488,-0.133
4/28/2023 17:43:23.910,-0.184,-0.582,-0.078
4/28/2023 17:43:23.920,-0.227,-0.688,-0.031
4/28/2023 17:43:23.930,-0.219,-0.754,0.008
4/28/2023 17:43:23.940,-0.188,-0.715,0.023
4/28/2023 17:43:23.950,-0.16,-0.625,0.023
4/28/2023 17:43:23.960,-0.137,-0.566,0.016
4/28/2023 17:43:23.970,-0.117,-0.578,0.004
4/28/2023 17:43:23.980,-0.102,-0.648,-0.016
4/28/2023 17:43:23.990,-0.082,-0.727,-0.047
4/28/2023 17:43:24.000,-0.09,-0.832,-0.047
4/28/2023 17:43:24.010,-0.137,-0.926,-0.055
4/28/2023 17:43:24.020,-0.238,-0.988,-0.148
4/28/2023 17:43:24.030,-0.332,-1.063,-0.234
4/28/2023 17:43:24.040,-0.383,-1.199,-0.254
4/28/2023 17:43:24.050,-0.402,-1.371,-0.23
4/28/2023 17:43:24.060,-0.438,-1.5,-0.207
4/28/2023 17:43:24.070,-0.465,-1.551,-0.109
4/28/2023 17:43:24.080,-0.438,-1.523,0.02
4/28/2023 17:43:24.090,-0.344,-1.445,0.063
4/28/2023 17:43:24.100,-0.367,-1.266,-0.352
4/28/2023 17:43:24.110,-0.621,-1.082,-0.781
4/28/2023 17:43:24.120,-1.055,-1.172,-1.078
4/28/2023 17:43:24.130,-1.461,-1.539,-1.324
4/28/2023 17:43:24.140,-1.563,-1.992,-1.133
4/28/2023 17:43:24.150,-1.16,-2.09,-0.609
4/28/2023 17:43:24.160,-0.523,-1.594,-0.398
4/28/2023 17:43:24.170,-0.027,-0.898,-0.422
4/28/2023 17:43:24.180,0.273,-0.43,-0.422
4/28/2023 17:43:24.190,0.277,-0.223,-0.422
4/28/2023 17:43:24.200,0.078,-0.199,-0.43
4/28/2023 17:43:24.210,-0.234,-0.414,-0.563
4/28/2023 17:43:24.220,-0.488,-0.777,-0.734
4/28/2023 17:43:24.230,-0.617,-1.285,-0.738
4/28/2023 17:43:24.240,-0.555,-1.672,-0.555
4/28/2023 17:43:24.250,-0.445,-1.656,-0.414
4/28/2023 17:43:24.260,-0.395,-1.363,-0.445
4/28/2023 17:43:24.270,-0.293,-1.086,-0.445
4/28/2023 17:43:24.280,-0.199,-0.887,-0.371
4/28/2023 17:43:24.290,-0.117,-0.707,-0.238
4/28/2023 17:43:24.300,-0.09,-0.57,-0.152
4/28/2023 17:43:24.310,-0.133,-0.445,-0.207
4/28/2023 17:43:24.320,-0.184,-0.352,-0.281
4/28/2023 17:43:24.330,-0.191,-0.301,-0.266
4/28/2023 17:43:24.340,-0.168,-0.34,-0.223
4/28/2023 17:43:24.350,-0.141,-0.438,-0.176
4/28/2023 17:43:24.360,-0.152,-0.566,-0.141
4/28/2023 17:43:24.370,-0.18,-0.676,-0.121
4/28/2023 17:43:24.380,-0.176,-0.738,-0.109
4/28/2023 17:43:24.390,-0.148,-0.75,-0.086
4/28/2023 17:43:24.400,-0.133,-0.711,-0.102
4/28/2023 17:43:24.410,-0.125,-0.629,-0.145
4/28/2023 17:43:24.420,-0.109,-0.566,-0.16
4/28/2023 17:43:24.430,-0.086,-0.551,-0.168
4/28/2023 17:43:24.440,-0.094,-0.594,-0.164
4/28/2023 17:43:24.450,-0.133,-0.668,-0.125
4/28/2023 17:43:24.460,-0.199,-0.777,-0.098
4/28/2023 17:43:24.470,-0.266,-0.895,-0.117
4/28/2023 17:43:24.480,-0.313,-0.953,-0.203
4/28/2023 17:43:24.490,-0.336,-1,-0.273
4/28/2023 17:43:24.500,-0.309,-1.055,-0.234
4/28/2023 17:43:24.510,-0.242,-1.152,-0.117
4/28/2023 17:43:24.520,-0.137,-1.246,-0.09
4/28/2023 17:43:24.530,0.031,-1.309,-0.164
4/28/2023 17:43:24.540,0.254,-1.371,-0.215
4/28/2023 17:43:24.550,0.449,-1.457,-0.195
4/28/2023 17:43:24.560,0.547,-1.477,-0.168
4/28/2023 17:43:24.570,0.465,-1.441,-0.09
4/28/2023 17:43:24.580,0.211,-1.453,-0.02
4/28/2023 17:43:24.590,-0.156,-1.434,-0.094
4/28/2023 17:43:24.600,-0.531,-1.363,-0.535
4/28/2023 17:43:24.610,-0.68,-1.25,-0.973
4/28/2023 17:43:24.620,-0.547,-1.301,-1.016
4/28/2023 17:43:24.630,-0.395,-1.285,-0.871
4/28/2023 17:43:24.640,-0.395,-1.117,-0.887
4/28/2023 17:43:24.650,-0.477,-0.957,-0.859
4/28/2023 17:43:24.660,-0.559,-0.953,-0.609
4/28/2023 17:43:24.670,-0.668,-1.055,-0.504
4/28/2023 17:43:24.680,-0.777,-1.063,-0.672
4/28/2023 17:43:24.690,-0.73,-0.988,-0.797
4/28/2023 17:43:24.700,-0.613,-0.961,-0.801
4/28/2023 17:43:24.710,-0.508,-1,-0.75
4/28/2023 17:43:24.720,-0.457,-1.121,-0.645
4/28/2023 17:43:24.730,-0.41,-1.238,-0.559
4/28/2023 17:43:24.740,-0.34,-1.266,-0.438
4/28/2023 17:43:24.750,-0.242,-1.18,-0.281
4/28/2023 17:43:24.760,-0.168,-1.02,-0.25
4/28/2023 17:43:24.770,-0.113,-0.859,-0.242
4/28/2023 17:43:24.780,-0.059,-0.754,-0.227
4/28/2023 17:43:24.790,-0.02,-0.68,-0.215
4/28/2023 17:43:24.800,0.004,-0.621,-0.188
4/28/2023 17:43:24.810,0.012,-0.578,-0.16
4/28/2023 17:43:24.820,-0.008,-0.563,-0.148
4/28/2023 17:43:24.830,-0.043,-0.563,-0.141
4/28/2023 17:43:24.840,-0.063,-0.566,-0.094
4/28/2023 17:43:24.850,-0.055,-0.559,-0.059
4/28/2023 17:43:24.860,-0.074,-0.527,-0.043
4/28/2023 17:43:24.870,-0.109,-0.473,-0.063
4/28/2023 17:43:24.880,-0.141,-0.438,-0.086
4/28/2023 17:43:24.890,-0.164,-0.461,-0.055
4/28/2023 17:43:24.900,-0.152,-0.535,0.012
4/28/2023 17:43:24.910,-0.137,-0.617,0.035
4/28/2023 17:43:24.920,-0.125,-0.652,0.016
4/28/2023 17:43:24.930,-0.102,-0.668,-0.012
4/28/2023 17:43:24.940,-0.09,-0.723,-0.023
4/28/2023 17:43:24.950,-0.094,-0.785,-0.031
4/28/2023 17:43:24.960,-0.133,-0.883,-0.035
4/28/2023 17:43:24.970,-0.195,-0.984,-0.109
4/28/2023 17:43:24.980,-0.281,-1.055,-0.266
4/28/2023 17:43:24.990,-0.375,-1.148,-0.371
4/28/2023 17:43:25.000,-0.488,-1.289,-0.359
4/28/2023 17:43:25.010,-0.598,-1.461,-0.281
4/28/2023 17:43:25.020,-0.719,-1.582,-0.199
4/28/2023 17:43:25.030,-0.773,-1.594,-0.059
4/28/2023 17:43:25.040,-0.633,-1.527,0.117
4/28/2023 17:43:25.050,-0.414,-1.453,0.156
4/28/2023 17:43:25.060,-0.285,-1.293,-0.219
4/28/2023 17:43:25.070,-0.332,-1.172,-0.668
4/28/2023 17:43:25.080,-0.609,-1.262,-0.918
4/28/2023 17:43:25.090,-0.891,-1.461,-1.176
4/28/2023 17:43:25.100,-1.105,-1.711,-1.156
4/28/2023 17:43:25.110,-1.043,-1.785,-0.762
4/28/2023 17:43:25.120,-0.707,-1.566,-0.418
4/28/2023 17:43:25.130,-0.367,-1.211,-0.289
4/28/2023 17:43:25.140,-0.156,-0.871,-0.223
4/28/2023 17:43:25.150,-0.031,-0.59,-0.281
4/28/2023 17:43:25.160,-0.035,-0.441,-0.414
4/28/2023 17:43:25.170,-0.125,-0.441,-0.504
4/28/2023 17:43:25.180,-0.215,-0.582,-0.586
4/28/2023 17:43:25.190,-0.238,-0.832,-0.527
4/28/2023 17:43:25.200,-0.25,-1.133,-0.406
4/28/2023 17:43:25.210,-0.289,-1.355,-0.348
4/28/2023 17:43:25.220,-0.355,-1.359,-0.375
4/28/2023 17:43:25.230,-0.332,-1.191,-0.402
4/28/2023 17:43:25.240,-0.238,-0.977,-0.348
4/28/2023 17:43:25.250,-0.156,-0.805,-0.234
4/28/2023 17:43:25.260,-0.148,-0.656,-0.172
4/28/2023 17:43:25.270,-0.168,-0.52,-0.156
4/28/2023 17:43:25.280,-0.156,-0.418,-0.164
4/28/2023 17:43:25.290,-0.125,-0.359,-0.191
4/28/2023 17:43:25.300,-0.094,-0.359,-0.219
4/28/2023 17:43:25.310,-0.082,-0.441,-0.195
4/28/2023 17:43:25.320,-0.07,-0.578,-0.129
4/28/2023 17:43:25.330,-0.074,-0.703,-0.066
4/28/2023 17:43:25.340,-0.098,-0.738,-0.074
4/28/2023 17:43:25.350,-0.133,-0.672,-0.145
4/28/2023 17:43:25.360,-0.16,-0.574,-0.172
4/28/2023 17:43:25.370,-0.168,-0.496,-0.129
4/28/2023 17:43:25.380,-0.176,-0.469,-0.074
4/28/2023 17:43:25.390,-0.199,-0.5,-0.059
4/28/2023 17:43:25.400,-0.23,-0.57,-0.07
4/28/2023 17:43:25.410,-0.246,-0.652,-0.074
4/28/2023 17:43:25.420,-0.234,-0.746,-0.086
4/28/2023 17:43:25.430,-0.207,-0.844,-0.105
4/28/2023 17:43:25.440,-0.195,-1.016,-0.129
4/28/2023 17:43:25.450,-0.172,-1.164,-0.129
4/28/2023 17:43:25.460,-0.152,-1.254,-0.137
4/28/2023 17:43:25.470,-0.137,-1.336,-0.18
4/28/2023 17:43:25.480,-0.094,-1.445,-0.211
4/28/2023 17:43:25.490,0.07,-1.523,-0.137
4/28/2023 17:43:25.500,0.289,-1.555,-0.059
4/28/2023 17:43:25.510,0.434,-1.512,-0.086
4/28/2023 17:43:25.520,0.391,-1.406,-0.125
4/28/2023 17:43:25.530,0.047,-1.395,-0.188
4/28/2023 17:43:25.540,-0.395,-1.418,-0.484
4/28/2023 17:43:25.550,-0.625,-1.387,-0.805
4/28/2023 17:43:25.560,-0.613,-1.43,-0.934
4/28/2023 17:43:25.570,-0.398,-1.32,-0.906
4/28/2023 17:43:25.580,-0.227,-1.148,-0.867
4/28/2023 17:43:25.590,-0.27,-1.059,-0.789
4/28/2023 17:43:25.600,-0.512,-1.094,-0.629
4/28/2023 17:43:25.610,-0.77,-1.168,-0.621
4/28/2023 17:43:25.620,-0.938,-1.18,-0.723
4/28/2023 17:43:25.630,-0.883,-1.105,-0.762
4/28/2023 17:43:25.640,-0.75,-1.031,-0.773
4/28/2023 17:43:25.650,-0.625,-1.023,-0.723
4/28/2023 17:43:25.660,-0.57,-1.07,-0.625
4/28/2023 17:43:25.670,-0.535,-1.145,-0.551
4/28/2023 17:43:25.680,-0.453,-1.215,-0.473
4/28/2023 17:43:25.690,-0.34,-1.195,-0.367
4/28/2023 17:43:25.700,-0.266,-1.066,-0.262
4/28/2023 17:43:25.710,-0.234,-0.898,-0.211
4/28/2023 17:43:25.720,-0.199,-0.746,-0.18
4/28/2023 17:43:25.730,-0.156,-0.633,-0.156
4/28/2023 17:43:25.740,-0.102,-0.547,-0.121
4/28/2023 17:43:25.750,-0.039,-0.496,-0.09
4/28/2023 17:43:25.760,-0.008,-0.477,-0.094
4/28/2023 17:43:25.770,0.023,-0.5,-0.07
4/28/2023 17:43:25.780,0.059,-0.523,-0.039
4/28/2023 17:43:25.790,0.082,-0.52,-0.043
4/28/2023 17:43:25.800,0.074,-0.504,-0.043
4/28/2023 17:43:25.810,0.008,-0.508,-0.043
4/28/2023 17:43:25.820,-0.082,-0.539,-0.02
4/28/2023 17:43:25.830,-0.152,-0.578,0.02
4/28/2023 17:43:25.840,-0.188,-0.613,0.043
4/28/2023 17:43:25.850,-0.168,-0.629,0.059
4/28/2023 17:43:25.860,-0.121,-0.645,0.051
4/28/2023 17:43:25.870,-0.082,-0.695,0.027
4/28/2023 17:43:25.880,-0.082,-0.793,0.016
4/28/2023 17:43:25.890,-0.09,-0.914,0.035
4/28/2023 17:43:25.900,-0.102,-1.008,0.031
4/28/2023 17:43:25.910,-0.117,-1.008,-0.129
4/28/2023 17:43:25.920,-0.184,-0.945,-0.336
4/28/2023 17:43:25.930,-0.27,-1.004,-0.348
4/28/2023 17:43:25.940,-0.387,-1.277,-0.293
4/28/2023 17:43:25.950,-0.559,-1.629,-0.238
4/28/2023 17:43:25.960,-0.75,-1.84,-0.168
4/28/2023 17:43:25.970,-0.809,-1.781,-0.039
4/28/2023 17:43:25.980,-0.621,-1.57,0.082
4/28/2023 17:43:25.990,-0.473,-1.305,-0.18
4/28/2023 17:43:26.000,-0.523,-1.152,-0.551
4/28/2023 17:43:26.010,-0.727,-1.195,-0.75
4/28/2023 17:43:26.020,-1.055,-1.434,-1.102
4/28/2023 17:43:26.030,-1.27,-1.758,-1.145
4/28/2023 17:43:26.040,-1.184,-1.895,-0.816
4/28/2023 17:43:26.050,-0.801,-1.559,-0.602
4/28/2023 17:43:26.060,-0.355,-1.078,-0.48
4/28/2023 17:43:26.070,-0.004,-0.715,-0.391
4/28/2023 17:43:26.080,0.156,-0.504,-0.32
4/28/2023 17:43:26.090,0.074,-0.469,-0.301
4/28/2023 17:43:26.100,-0.125,-0.617,-0.43
4/28/2023 17:43:26.110,-0.262,-0.824,-0.57
4/28/2023 17:43:26.120,-0.313,-0.996,-0.566
4/28/2023 17:43:26.130,-0.332,-1.102,-0.488
4/28/2023 17:43:26.140,-0.371,-1.125,-0.449
4/28/2023 17:43:26.150,-0.41,-1.109,-0.445
4/28/2023 17:43:26.160,-0.406,-1.051,-0.41
4/28/2023 17:43:26.170,-0.348,-0.938,-0.355
4/28/2023 17:43:26.180,-0.27,-0.762,-0.313
4/28/2023 17:43:26.190,-0.203,-0.59,-0.262
4/28/2023 17:43:26.200,-0.16,-0.461,-0.215
4/28/2023 17:43:26.210,-0.117,-0.375,-0.18
4/28/2023 17:43:26.220,-0.09,-0.332,-0.168
4/28/2023 17:43:26.230,-0.063,-0.344,-0.164
4/28/2023 17:43:26.240,-0.035,-0.418,-0.176
4/28/2023 17:43:26.250,-0.063,-0.551,-0.156
4/28/2023 17:43:26.260,-0.117,-0.688,-0.117
4/28/2023 17:43:26.270,-0.168,-0.77,-0.102
4/28/2023 17:43:26.280,-0.191,-0.754,-0.117
4/28/2023 17:43:26.290,-0.176,-0.66,-0.145
4/28/2023 17:43:26.300,-0.133,-0.555,-0.164
4/28/2023 17:43:26.310,-0.102,-0.488,-0.16
4/28/2023 17:43:26.320,-0.102,-0.488,-0.121
4/28/2023 17:43:26.330,-0.145,-0.539,-0.094
4/28/2023 17:43:26.340,-0.211,-0.609,-0.07
4/28/2023 17:43:26.350,-0.266,-0.715,-0.063
4/28/2023 17:43:26.360,-0.277,-0.82,-0.098
4/28/2023 17:43:26.370,-0.254,-0.977,-0.129
4/28/2023 17:43:26.380,-0.203,-1.16,-0.152
4/28/2023 17:43:26.390,-0.152,-1.332,-0.207
4/28/2023 17:43:26.400,-0.102,-1.426,-0.25
4/28/2023 17:43:26.410,-0.023,-1.465,-0.266
4/28/2023 17:43:26.420,0.113,-1.484,-0.215
4/28/2023 17:43:26.430,0.266,-1.504,-0.109
4/28/2023 17:43:26.440,0.367,-1.461,-0.043
4/28/2023 17:43:26.450,0.344,-1.398,-0.055
4/28/2023 17:43:26.460,0.133,-1.387,-0.027
4/28/2023 17:43:26.470,-0.27,-1.438,-0.246
4/28/2023 17:43:26.480,-0.563,-1.465,-0.723
4/28/2023 17:43:26.490,-0.609,-1.547,-0.949
4/28/2023 17:43:26.500,-0.398,-1.516,-0.934
4/28/2023 17:43:26.510,-0.215,-1.305,-0.965
4/28/2023 17:43:26.520,-0.203,-1.102,-1.016
4/28/2023 17:43:26.530,-0.359,-1.055,-0.785
4/28/2023 17:43:26.540,-0.652,-1.211,-0.512
4/28/2023 17:43:26.550,-0.867,-1.238,-0.574
4/28/2023 17:43:26.560,-0.801,-1.078,-0.684
4/28/2023 17:43:26.570,-0.625,-0.918,-0.738
4/28/2023 17:43:26.580,-0.488,-0.879,-0.738
4/28/2023 17:43:26.590,-0.445,-0.961,-0.672
4/28/2023 17:43:26.600,-0.453,-1.141,-0.578
4/28/2023 17:43:26.610,-0.43,-1.297,-0.48
4/28/2023 17:43:26.620,-0.348,-1.309,-0.379
4/28/2023 17:43:26.630,-0.281,-1.133,-0.324
4/28/2023 17:43:26.640,-0.215,-0.906,-0.281
4/28/2023 17:43:26.650,-0.156,-0.723,-0.238
4/28/2023 17:43:26.660,-0.109,-0.617,-0.195
4/28/2023 17:43:26.670,-0.102,-0.555,-0.18
4/28/2023 17:43:26.680,-0.09,-0.504,-0.164
4/28/2023 17:43:26.690,-0.086,-0.461,-0.121
4/28/2023 17:43:26.700,-0.109,-0.43,-0.109
4/28/2023 17:43:26.710,-0.129,-0.406,-0.105
4/28/2023 17:43:26.720,-0.102,-0.402,-0.066
4/28/2023 17:43:26.730,-0.078,-0.438,0
4/28/2023 17:43:26.740,-0.066,-0.492,0.063
4/28/2023 17:43:26.750,-0.066,-0.563,0.059
4/28/2023 17:43:26.760,-0.082,-0.609,0.016
4/28/2023 17:43:26.770,-0.094,-0.613,-0.012
4/28/2023 17:43:26.780,-0.086,-0.605,-0.016
4/28/2023 17:43:26.790,-0.059,-0.621,0.012
4/28/2023 17:43:26.800,-0.051,-0.684,0.012
4/28/2023 17:43:26.810,-0.051,-0.762,-0.012
4/28/2023 17:43:26.820,-0.047,-0.84,-0.023
4/28/2023 17:43:26.830,-0.031,-0.945,-0.004
4/28/2023 17:43:26.840,-0.063,-1.035,-0.035
4/28/2023 17:43:26.850,-0.195,-1.055,-0.219
4/28/2023 17:43:26.860,-0.391,-1.102,-0.313
4/28/2023 17:43:26.870,-0.598,-1.27,-0.246
4/28/2023 17:43:26.880,-0.824,-1.465,-0.223
4/28/2023 17:43:26.890,-0.996,-1.633,-0.223
4/28/2023 17:43:26.900,-0.969,-1.648,-0.117
4/28/2023 17:43:26.910,-0.695,-1.559,0.047
4/28/2023 17:43:26.920,-0.359,-1.457,0.125
4/28/2023 17:43:26.930,-0.16,-1.293,-0.207
4/28/2023 17:43:26.940,-0.258,-1.125,-0.645
4/28/2023 17:43:26.950,-0.563,-1.137,-0.895
4/28/2023 17:43:26.960,-0.914,-1.363,-1.188
4/28/2023 17:43:26.970,-1.148,-1.707,-1.156
4/28/2023 17:43:26.980,-1.09,-1.852,-0.879
4/28/2023 17:43:26.990,-0.684,-1.566,-0.598
4/28/2023 17:43:27.000,-0.27,-1.137,-0.434
4/28/2023 17:43:27.010,-0.008,-0.766,-0.313
4/28/2023 17:43:27.020,0.027,-0.5,-0.328
4/28/2023 17:43:27.030,-0.113,-0.363,-0.387
4/28/2023 17:43:27.040,-0.316,-0.488,-0.469
4/28/2023 17:43:27.050,-0.387,-0.758,-0.563
4/28/2023 17:43:27.060,-0.375,-1.066,-0.555
4/28/2023 17:43:27.070,-0.328,-1.301,-0.488
4/28/2023 17:43:27.080,-0.281,-1.371,-0.414
4/28/2023 17:43:27.090,-0.266,-1.289,-0.398
4/28/2023 17:43:27.100,-0.258,-1.141,-0.375
4/28/2023 17:43:27.110,-0.215,-0.957,-0.309
4/28/2023 17:43:27.120,-0.184,-0.781,-0.234
4/28/2023 17:43:27.130,-0.168,-0.641,-0.195
4/28/2023 17:43:27.140,-0.152,-0.527,-0.172
4/28/2023 17:43:27.150,-0.09,-0.461,-0.141
4/28/2023 17:43:27.160,-0.027,-0.441,-0.109
4/28/2023 17:43:27.170,-0.008,-0.469,-0.109
4/28/2023 17:43:27.180,-0.027,-0.535,-0.145
4/28/2023 17:43:27.190,-0.066,-0.602,-0.133
4/28/2023 17:43:27.200,-0.117,-0.66,-0.113
4/28/2023 17:43:27.210,-0.164,-0.691,-0.102
4/28/2023 17:43:27.220,-0.207,-0.684,-0.105
4/28/2023 17:43:27.230,-0.207,-0.648,-0.098
4/28/2023 17:43:27.240,-0.172,-0.602,-0.074
4/28/2023 17:43:27.250,-0.129,-0.539,-0.07
4/28/2023 17:43:27.260,-0.102,-0.508,-0.07
4/28/2023 17:43:27.270,-0.102,-0.512,-0.078
4/28/2023 17:43:27.280,-0.141,-0.563,-0.082
4/28/2023 17:43:27.290,-0.191,-0.645,-0.066
4/28/2023 17:43:27.300,-0.238,-0.73,-0.059
4/28/2023 17:43:27.310,-0.285,-0.816,-0.094
4/28/2023 17:43:27.320,-0.305,-0.906,-0.113
4/28/2023 17:43:27.330,-0.258,-1.07,-0.078
4/28/2023 17:43:27.340,-0.152,-1.23,-0.102
4/28/2023 17:43:27.350,-0.027,-1.359,-0.184
4/28/2023 17:43:27.360,0.133,-1.438,-0.195
4/28/2023 17:43:27.370,0.301,-1.469,-0.199
4/28/2023 17:43:27.380,0.422,-1.469,-0.164
4/28/2023 17:43:27.390,0.418,-1.492,-0.109
4/28/2023 17:43:27.400,0.238,-1.535,-0.07
4/28/2023 17:43:27.410,-0.152,-1.551,-0.129
4/28/2023 17:43:27.420,-0.508,-1.496,-0.523
4/28/2023 17:43:27.430,-0.59,-1.402,-0.824
4/28/2023 17:43:27.440,-0.398,-1.375,-0.832
4/28/2023 17:43:27.450,-0.211,-1.258,-0.883
4/28/2023 17:43:27.460,-0.215,-1.145,-0.988
4/28/2023 17:43:27.470,-0.402,-1.129,-0.891
4/28/2023 17:43:27.480,-0.645,-1.219,-0.57
4/28/2023 17:43:27.490,-0.906,-1.273,-0.492
4/28/2023 17:43:27.500,-1.008,-1.121,-0.645
4/28/2023 17:43:27.510,-0.871,-0.938,-0.734
4/28/2023 17:43:27.520,-0.684,-0.883,-0.766
