------------ Data File Created By ActiGraph GT3X+ ActiLife v6.13.4 Firmware v1.7.2 date format M/d/yyyy at 100 Hz  Filter Normal -----------
Serial Number: TAS1H50200818
Start Time 17:43:00
Start Date 4/28/2023
Epoch Period (hh:mm:ss) 00:00:00
Download Time 17:57:32
Download Date 4/28/2023
Current Memory Address: 0
Current Battery Voltage: 4.17     Mode = 12
--------------------------------------------------
Timestamp,Accelerometer X,Accelerometer Y,Accelerometer Z
4/28/2023 17:43:00.000,0.914,0.641,0.246
4/28/2023 17:43:00.010,0.938,0.68,0.227
4/28/2023 17:43:00.020,0.957,0.734,0.195
4/28/2023 17:43:00.030,0.973,0.797,0.188
4/28/2023 17:43:00.040,0.973,0.836,0.188
4/28/2023 17:43:00.050,0.98,0.844,0.203
4/28/2023 17:43:00.060,0.973,0.813,0.219
4/28/2023 17:43:00.070,0.949,0.77,0.258
4/28/2023 17:43:00.080,0.938,0.719,0.305
4/28/2023 17:43:00.090,0.922,0.672,0.332
4/28/2023 17:43:00.100,0.906,0.645,0.355
4/28/2023 17:43:00.110,0.902,0.621,0.363
4/28/2023 17:43:00.120,0.875,0.625,0.348
4/28/2023 17:43:00.130,0.859,0.641,0.324
4/28/2023 17:43:00.140,0.852,0.664,0.281
4/28/2023 17:43:00.150,0.84,0.688,0.25
4/28/2023 17:43:00.160,0.832,0.684,0.23
4/28/2023 17:43:00.170,0.82,0.684,0.211
4/28/2023 17:43:00.180,0.781,0.703,0.199
4/28/2023 17:43:00.190,0.777,0.758,0.188
4/28/2023 17:43:00.200,0.781,0.793,0.207
4/28/2023 17:43:00.210,0.805,0.766,0.254
4/28/2023 17:43:00.220,0.836,0.699,0.324
4/28/2023 17:43:00.230,0.859,0.605,0.367
4/28/2023 17:43:00.240,0.855,0.555,0.379
4/28/2023 17:43:00.250,0.828,0.574,0.336
4/28/2023 17:43:00.260,0.793,0.629,0.27
4/28/2023 17:43:00.270,0.77,0.652,0.242
4/28/2023 17:43:00.280,0.773,0.609,0.285
4/28/2023 17:43:00.290,0.797,0.523,0.344
4/28/2023 17:43:00.300,0.832,0.43,0.395
4/28/2023 17:43:00.310,0.844,0.355,0.418
4/28/2023 17:43:00.320,0.836,0.297,0.41
4/28/2023 17:43:00.330,0.828,0.262,0.422
4/28/2023 17:43:00.340,0.828,0.246,0.457
4/28/2023 17:43:00.350,0.832,0.258,0.48
4/28/2023 17:43:00.360,0.832,0.25,0.516
4/28/2023 17:43:00.370,0.832,0.199,0.559
4/28/2023 17:43:00.380,0.828,0.145,0.582
4/28/2023 17:43:00.390,0.828,0.105,0.578
4/28/2023 17:43:00.400,0.816,0.063,0.563
4/28/2023 17:43:00.410,0.754,-0.004,0.539
4/28/2023 17:43:00.420,0.664,-0.066,0.527
4/28/2023 17:43:00.430,0.609,-0.082,0.531
4/28/2023 17:43:00.440,0.605,-0.051,0.547
4/28/2023 17:43:00.450,0.613,-0.031,0.582
4/28/2023 17:43:00.460,0.633,-0.004,0.629
4/28/2023 17:43:00.470,0.652,0.016,0.648
4/28/2023 17:43:00.480,0.66,0.012,0.652
4/28/2023 17:43:00.490,0.625,-0.039,0.652
4/28/2023 17:43:00.500,0.578,-0.094,0.648
4/28/2023 17:43:00.510,0.57,-0.133,0.652
4/28/2023 17:43:00.520,0.559,-0.125,0.66
4/28/2023 17:43:00.530,0.559,-0.082,0.676
4/28/2023 17:43:00.540,0.563,-0.027,0.691
4/28/2023 17:43:00.550,0.57,-0.016,0.727
4/28/2023 17:43:00.560,0.578,-0.039,0.77
4/28/2023 17:43:00.570,0.57,-0.082,0.797
4/28/2023 17:43:00.580,0.559,-0.113,0.805
4/28/2023 17:43:00.590,0.543,-0.125,0.801
4/28/2023 17:43:00.600,0.535,-0.113,0.781
4/28/2023 17:43:00.610,0.523,-0.098,0.758
4/28/2023 17:43:00.620,0.523,-0.078,0.75
4/28/2023 17:43:00.630,0.52,-0.066,0.75
4/28/2023 17:43:00.640,0.52,-0.039,0.75
4/28/2023 17:43:00.650,0.52,-0.031,0.758
4/28/2023 17:43:00.660,0.52,-0.027,0.77
4/28/2023 17:43:00.670,0.512,-0.043,0.781
4/28/2023 17:43:00.680,0.504,-0.055,0.785
4/28/2023 17:43:00.690,0.492,-0.074,0.77
4/28/2023 17:43:00.700,0.488,-0.07,0.754
4/28/2023 17:43:00.710,0.484,-0.055,0.738
4/28/2023 17:43:00.720,0.496,-0.059,0.73
4/28/2023 17:43:00.730,0.504,-0.043,0.727
4/28/2023 17:43:00.740,0.5,-0.035,0.719
4/28/2023 17:43:00.750,0.504,-0.051,0.723
4/28/2023 17:43:00.760,0.504,-0.074,0.727
4/28/2023 17:43:00.770,0.508,-0.105,0.723
4/28/2023 17:43:00.780,0.5,-0.121,0.703
4/28/2023 17:43:00.790,0.488,-0.133,0.68
4/28/2023 17:43:00.800,0.473,-0.137,0.656
4/28/2023 17:43:00.810,0.469,-0.113,0.633
4/28/2023 17:43:00.820,0.48,-0.074,0.613
4/28/2023 17:43:00.830,0.5,-0.031,0.605
4/28/2023 17:43:00.840,0.508,0.012,0.598
4/28/2023 17:43:00.850,0.52,0.059,0.59
4/28/2023 17:43:00.860,0.527,0.094,0.57
4/28/2023 17:43:00.870,0.543,0.129,0.543
4/28/2023 17:43:00.880,0.566,0.148,0.504
4/28/2023 17:43:00.890,0.574,0.152,0.465
4/28/2023 17:43:00.900,0.563,0.137,0.422
4/28/2023 17:43:00.910,0.57,0.133,0.371
4/28/2023 17:43:00.920,0.609,0.168,0.316
4/28/2023 17:43:00.930,0.676,0.215,0.254
4/28/2023 17:43:00.940,0.715,0.223,0.215
4/28/2023 17:43:00.950,0.727,0.246,0.152
4/28/2023 17:43:00.960,0.746,0.348,0.059
4/28/2023 17:43:00.970,0.777,0.465,-0.008
4/28/2023 17:43:00.980,0.813,0.531,-0.055
4/28/2023 17:43:00.990,0.852,0.574,-0.09
4/28/2023 17:43:01.000,0.887,0.602,-0.102
4/28/2023 17:43:01.010,0.934,0.625,-0.109
4/28/2023 17:43:01.020,0.996,0.672,-0.121
4/28/2023 17:43:01.030,1.047,0.715,-0.102
4/28/2023 17:43:01.040,1.094,0.738,-0.082
4/28/2023 17:43:01.050,1.133,0.742,-0.051
4/28/2023 17:43:01.060,1.168,0.734,-0.031
4/28/2023 17:43:01.070,1.184,0.723,-0.02
4/28/2023 17:43:01.080,1.176,0.711,-0.02
4/28/2023 17:43:01.090,1.18,0.664,0.047
4/28/2023 17:43:01.100,1.254,0.465,0.215
4/28/2023 17:43:01.110,1.344,0.25,0.441
4/28/2023 17:43:01.120,1.398,0.09,0.582
4/28/2023 17:43:01.130,1.402,0.141,0.453
4/28/2023 17:43:01.140,1.277,0.629,0.117
4/28/2023 17:43:01.150,1.105,1.207,-0.09
4/28/2023 17:43:01.160,0.996,1.387,-0.164
4/28/2023 17:43:01.170,0.984,1.238,-0.125
4/28/2023 17:43:01.180,0.984,1.055,-0.086
4/28/2023 17:43:01.190,0.977,0.953,-0.059
4/28/2023 17:43:01.200,0.949,0.906,-0.047
4/28/2023 17:43:01.210,0.914,0.844,-0.039
4/28/2023 17:43:01.220,0.891,0.777,-0.031
4/28/2023 17:43:01.230,0.871,0.723,-0.023
4/28/2023 17:43:01.240,0.867,0.668,-0.016
4/28/2023 17:43:01.250,0.879,0.648,-0.027
4/28/2023 17:43:01.260,0.883,0.609,-0.035
4/28/2023 17:43:01.270,0.871,0.531,-0.016
4/28/2023 17:43:01.280,0.848,0.426,0.008
4/28/2023 17:43:01.290,0.844,0.383,0.023
4/28/2023 17:43:01.300,0.859,0.398,0.027
4/28/2023 17:43:01.310,0.879,0.445,0.027
4/28/2023 17:43:01.320,0.883,0.469,0.031
4/28/2023 17:43:01.330,0.883,0.469,0.027
4/28/2023 17:43:01.340,0.883,0.449,0.035
4/28/2023 17:43:01.350,0.898,0.426,0.035
4/28/2023 17:43:01.360,0.902,0.41,0.039
4/28/2023 17:43:01.370,0.91,0.406,0.035
4/28/2023 17:43:01.380,0.906,0.41,0.031
4/28/2023 17:43:01.390,0.91,0.41,0.023
4/28/2023 17:43:01.400,0.91,0.41,0.016
4/28/2023 17:43:01.410,0.914,0.41,0.016
4/28/2023 17:43:01.420,0.914,0.41,0.004
4/28/2023 17:43:01.430,0.914,0.418,-0.004
4/28/2023 17:43:01.440,0.898,0.422,-0.016
4/28/2023 17:43:01.450,0.883,0.441,-0.027
4/28/2023 17:43:01.460,0.883,0.457,-0.031
4/28/2023 17:43:01.470,0.887,0.457,-0.031
4/28/2023 17:43:01.480,0.891,0.453,-0.031
4/28/2023 17:43:01.490,0.895,0.453,-0.027
4/28/2023 17:43:01.500,0.891,0.453,-0.023
4/28/2023 17:43:01.510,0.91,0.453,-0.02
4/28/2023 17:43:01.520,0.926,0.449,-0.031
4/28/2023 17:43:01.530,0.93,0.441,-0.035
4/28/2023 17:43:01.540,0.926,0.438,-0.043
4/28/2023 17:43:01.550,0.918,0.43,-0.051
4/28/2023 17:43:01.560,0.906,0.422,-0.055
4/28/2023 17:43:01.570,0.898,0.414,-0.055
4/28/2023 17:43:01.580,0.883,0.414,-0.055
4/28/2023 17:43:01.590,0.895,0.418,-0.047
4/28/2023 17:43:01.600,0.922,0.422,-0.043
4/28/2023 17:43:01.610,0.953,0.414,-0.043
4/28/2023 17:43:01.620,0.977,0.406,-0.043
4/28/2023 17:43:01.630,0.984,0.402,-0.043
4/28/2023 17:43:01.640,0.977,0.395,-0.043
4/28/2023 17:43:01.650,0.969,0.395,-0.039
4/28/2023 17:43:01.660,0.953,0.391,-0.039
4/28/2023 17:43:01.670,0.93,0.383,-0.035
4/28/2023 17:43:01.680,0.91,0.383,-0.027
4/28/2023 17:43:01.690,0.891,0.383,-0.023
4/28/2023 17:43:01.700,0.879,0.387,-0.016
4/28/2023 17:43:01.710,0.867,0.391,-0.012
4/28/2023 17:43:01.720,0.863,0.402,-0.012
4/28/2023 17:43:01.730,0.871,0.406,-0.012
4/28/2023 17:43:01.740,0.883,0.414,-0.008
4/28/2023 17:43:01.750,0.898,0.418,0.012
4/28/2023 17:43:01.760,0.902,0.41,0.031
4/28/2023 17:43:01.770,0.898,0.402,0.043
4/28/2023 17:43:01.780,0.898,0.395,0.043
4/28/2023 17:43:01.790,0.891,0.395,0.039
4/28/2023 17:43:01.800,0.891,0.398,0.039
4/28/2023 17:43:01.810,0.895,0.426,0.043
4/28/2023 17:43:01.820,0.898,0.492,0.059
4/28/2023 17:43:01.830,0.914,0.547,0.078
4/28/2023 17:43:01.840,0.934,0.594,0.086
4/28/2023 17:43:01.850,0.953,0.617,0.082
4/28/2023 17:43:01.860,0.98,0.652,0.082
4/28/2023 17:43:01.870,1.008,0.691,0.094
4/28/2023 17:43:01.880,1.031,0.715,0.109
4/28/2023 17:43:01.890,1.051,0.688,0.152
4/28/2023 17:43:01.900,1.07,0.656,0.215
4/28/2023 17:43:01.910,1.063,0.652,0.23
4/28/2023 17:43:01.920,1.039,0.727,0.219
4/28/2023 17:43:01.930,1.059,0.871,0.211
4/28/2023 17:43:01.940,1.105,0.996,0.188
4/28/2023 17:43:01.950,1.203,1.102,0.223
4/28/2023 17:43:01.960,1.273,0.945,0.309
4/28/2023 17:43:01.970,1.332,0.734,0.391
4/28/2023 17:43:01.980,1.324,0.555,0.453
4/28/2023 17:43:01.990,1.277,0.445,0.449
4/28/2023 17:43:02.000,1.215,0.387,0.43
4/28/2023 17:43:02.010,1.172,0.301,0.484
4/28/2023 17:43:02.020,1.125,0.199,0.555
4/28/2023 17:43:02.030,1.074,0.156,0.629
4/28/2023 17:43:02.040,1.031,0.195,0.648
4/28/2023 17:43:02.050,1.051,0.227,0.641
4/28/2023 17:43:02.060,1.008,0.168,0.617
4/28/2023 17:43:02.070,0.902,0.066,0.59
4/28/2023 17:43:02.080,0.785,-0.02,0.57
4/28/2023 17:43:02.090,0.707,-0.035,0.551
4/28/2023 17:43:02.100,0.648,-0.023,0.555
4/28/2023 17:43:02.110,0.605,-0.016,0.551
4/28/2023 17:43:02.120,0.582,-0.016,0.543
4/28/2023 17:43:02.130,0.543,-0.016,0.523
4/28/2023 17:43:02.140,0.504,-0.004,0.512
4/28/2023 17:43:02.150,0.465,0,0.5
4/28/2023 17:43:02.160,0.438,0.02,0.5
4/28/2023 17:43:02.170,0.426,0.031,0.504
4/28/2023 17:43:02.180,0.434,0.023,0.527
4/28/2023 17:43:02.190,0.445,0.016,0.57
4/28/2023 17:43:02.200,0.449,0.012,0.59
4/28/2023 17:43:02.210,0.434,0,0.594
4/28/2023 17:43:02.220,0.41,0.004,0.598
4/28/2023 17:43:02.230,0.402,0.012,0.598
4/28/2023 17:43:02.240,0.402,0.043,0.609
4/28/2023 17:43:02.250,0.402,0.059,0.629
4/28/2023 17:43:02.260,0.402,0.063,0.664
4/28/2023 17:43:02.270,0.406,0.055,0.699
4/28/2023 17:43:02.280,0.41,0.039,0.727
4/28/2023 17:43:02.290,0.406,0.02,0.734
4/28/2023 17:43:02.300,0.406,0.016,0.742
4/28/2023 17:43:02.310,0.41,0.016,0.75
4/28/2023 17:43:02.320,0.406,0.02,0.766
4/28/2023 17:43:02.330,0.402,0.016,0.773
4/28/2023 17:43:02.340,0.402,0.016,0.777
4/28/2023 17:43:02.350,0.41,0.023,0.789
4/28/2023 17:43:02.360,0.41,0.035,0.801
4/28/2023 17:43:02.370,0.398,0.023,0.809
4/28/2023 17:43:02.380,0.383,0.004,0.816
4/28/2023 17:43:02.390,0.371,-0.008,0.816
4/28/2023 17:43:02.400,0.367,-0.008,0.824
4/28/2023 17:43:02.410,0.363,-0.004,0.836
4/28/2023 17:43:02.420,0.359,-0.016,0.844
4/28/2023 17:43:02.430,0.355,-0.031,0.848
4/28/2023 17:43:02.440,0.355,-0.051,0.844
4/28/2023 17:43:02.450,0.359,-0.055,0.863
4/28/2023 17:43:02.460,0.375,-0.039,0.891
4/28/2023 17:43:02.470,0.398,-0.031,0.91
4/28/2023 17:43:02.480,0.406,-0.035,0.918
4/28/2023 17:43:02.490,0.398,-0.051,0.922
4/28/2023 17:43:02.500,0.387,-0.055,0.922
4/28/2023 17:43:02.510,0.387,-0.059,0.926
4/28/2023 17:43:02.520,0.391,-0.055,0.938
4/28/2023 17:43:02.530,0.395,-0.055,0.941
4/28/2023 17:43:02.540,0.391,-0.066,0.938
4/28/2023 17:43:02.550,0.379,-0.082,0.934
4/28/2023 17:43:02.560,0.379,-0.105,0.918
4/28/2023 17:43:02.570,0.379,-0.121,0.91
4/28/2023 17:43:02.580,0.383,-0.113,0.902
4/28/2023 17:43:02.590,0.391,-0.094,0.91
4/28/2023 17:43:02.600,0.395,-0.082,0.93
4/28/2023 17:43:02.610,0.402,-0.078,0.949
4/28/2023 17:43:02.620,0.402,-0.094,0.965
4/28/2023 17:43:02.630,0.406,-0.102,0.965
4/28/2023 17:43:02.640,0.402,-0.105,0.961
4/28/2023 17:43:02.650,0.398,-0.117,0.949
4/28/2023 17:43:02.660,0.383,-0.129,0.93
4/28/2023 17:43:02.670,0.371,-0.137,0.914
4/28/2023 17:43:02.680,0.363,-0.141,0.891
4/28/2023 17:43:02.690,0.367,-0.117,0.883
4/28/2023 17:43:02.700,0.375,-0.086,0.895
4/28/2023 17:43:02.710,0.387,-0.07,0.914
4/28/2023 17:43:02.720,0.395,-0.078,0.93
4/28/2023 17:43:02.730,0.395,-0.09,0.941
4/28/2023 17:43:02.740,0.391,-0.094,0.934
4/28/2023 17:43:02.750,0.391,-0.09,0.926
4/28/2023 17:43:02.760,0.391,-0.094,0.914
4/28/2023 17:43:02.770,0.395,-0.082,0.918
4/28/2023 17:43:02.780,0.406,-0.07,0.926
4/28/2023 17:43:02.790,0.406,-0.074,0.938
4/28/2023 17:43:02.800,0.398,-0.09,0.938
4/28/2023 17:43:02.810,0.391,-0.109,0.938
4/28/2023 17:43:02.820,0.395,-0.129,0.926
4/28/2023 17:43:02.830,0.395,-0.121,0.93
4/28/2023 17:43:02.840,0.406,-0.102,0.93
4/28/2023 17:43:02.850,0.41,-0.098,0.941
4/28/2023 17:43:02.860,0.414,-0.102,0.953
4/28/2023 17:43:02.870,0.422,-0.102,0.957
4/28/2023 17:43:02.880,0.426,-0.09,0.957
4/28/2023 17:43:02.890,0.418,-0.078,0.949
4/28/2023 17:43:02.900,0.402,-0.086,0.934
4/28/2023 17:43:02.910,0.391,-0.082,0.926
4/28/2023 17:43:02.920,0.383,-0.094,0.922
4/28/2023 17:43:02.930,0.375,-0.102,0.914
4/28/2023 17:43:02.940,0.375,-0.102,0.91
4/28/2023 17:43:02.950,0.375,-0.094,0.91
4/28/2023 17:43:02.960,0.379,-0.09,0.91
4/28/2023 17:43:02.970,0.375,-0.086,0.914
4/28/2023 17:43:02.980,0.375,-0.078,0.918
4/28/2023 17:43:02.990,0.375,-0.074,0.918
4/28/2023 17:43:03.000,0.363,-0.082,0.91
4/28/2023 17:43:03.010,0.363,-0.09,0.914
4/28/2023 17:43:03.020,0.363,-0.086,0.91
4/28/2023 17:43:03.030,0.359,-0.09,0.914
4/28/2023 17:43:03.040,0.359,-0.094,0.914
4/28/2023 17:43:03.050,0.359,-0.102,0.922
4/28/2023 17:43:03.060,0.359,-0.098,0.93
4/28/2023 17:43:03.070,0.367,-0.09,0.934
4/28/2023 17:43:03.080,0.363,-0.098,0.934
4/28/2023 17:43:03.090,0.355,-0.098,0.922
4/28/2023 17:43:03.100,0.34,-0.094,0.906
4/28/2023 17:43:03.110,0.332,-0.086,0.902
4/28/2023 17:43:03.120,0.328,-0.082,0.906
4/28/2023 17:43:03.130,0.336,-0.09,0.91
4/28/2023 17:43:03.140,0.34,-0.086,0.914
4/28/2023 17:43:03.150,0.332,-0.082,0.914
4/28/2023 17:43:03.160,0.328,-0.074,0.906
4/28/2023 17:43:03.170,0.328,-0.07,0.891
4/28/2023 17:43:03.180,0.316,-0.078,0.871
4/28/2023 17:43:03.190,0.309,-0.086,0.848
4/28/2023 17:43:03.200,0.309,-0.082,0.824
4/28/2023 17:43:03.210,0.309,-0.078,0.809
4/28/2023 17:43:03.220,0.301,-0.098,0.789
4/28/2023 17:43:03.230,0.293,-0.129,0.762
4/28/2023 17:43:03.240,0.277,-0.156,0.734
4/28/2023 17:43:03.250,0.277,-0.168,0.699
4/28/2023 17:43:03.260,0.27,-0.168,0.68
4/28/2023 17:43:03.270,0.273,-0.152,0.66
4/28/2023 17:43:03.280,0.289,-0.133,0.641
4/28/2023 17:43:03.290,0.301,-0.098,0.625
4/28/2023 17:43:03.300,0.332,-0.051,0.613
4/28/2023 17:43:03.310,0.371,-0.023,0.605
4/28/2023 17:43:03.320,0.395,-0.008,0.598
4/28/2023 17:43:03.330,0.406,-0.016,0.57
4/28/2023 17:43:03.340,0.422,-0.016,0.535
4/28/2023 17:43:03.350,0.418,-0.004,0.48
4/28/2023 17:43:03.360,0.453,0.004,0.406
4/28/2023 17:43:03.370,0.5,0.012,0.328
4/28/2023 17:43:03.380,0.57,0.031,0.242
4/28/2023 17:43:03.390,0.648,0.125,0.156
4/28/2023 17:43:03.400,0.645,0.129,0.066
4/28/2023 17:43:03.410,0.652,0.117,-0.02
4/28/2023 17:43:03.420,0.699,0.117,-0.113
4/28/2023 17:43:03.430,0.762,0.152,-0.215
4/28/2023 17:43:03.440,0.813,0.238,-0.297
4/28/2023 17:43:03.450,0.852,0.352,-0.355
4/28/2023 17:43:03.460,0.891,0.469,-0.398
4/28/2023 17:43:03.470,0.938,0.574,-0.387
4/28/2023 17:43:03.480,1.047,0.648,-0.402
4/28/2023 17:43:03.490,1.168,0.719,-0.406
4/28/2023 17:43:03.500,1.254,0.797,-0.402
4/28/2023 17:43:03.510,1.313,0.852,-0.383
4/28/2023 17:43:03.520,1.344,0.887,-0.363
4/28/2023 17:43:03.530,1.375,0.898,-0.332
4/28/2023 17:43:03.540,1.422,0.91,-0.309
4/28/2023 17:43:03.550,1.449,0.926,-0.273
4/28/2023 17:43:03.560,1.43,0.938,-0.238
4/28/2023 17:43:03.570,1.375,0.93,-0.191
4/28/2023 17:43:03.580,1.309,0.906,-0.125
4/28/2023 17:43:03.590,1.27,0.863,-0.078
4/28/2023 17:43:03.600,1.238,0.816,-0.027
4/28/2023 17:43:03.610,1.219,0.758,0.035
4/28/2023 17:43:03.620,1.195,0.723,0.105
4/28/2023 17:43:03.630,1.168,0.699,0.172
4/28/2023 17:43:03.640,1.145,0.695,0.227
4/28/2023 17:43:03.650,1.109,0.691,0.262
4/28/2023 17:43:03.660,1.055,0.68,0.293
4/28/2023 17:43:03.670,0.992,0.664,0.313
4/28/2023 17:43:03.680,0.922,0.637,0.297
4/28/2023 17:43:03.690,0.867,0.609,0.27
4/28/2023 17:43:03.700,0.836,0.586,0.234
4/28/2023 17:43:03.710,0.813,0.57,0.188
4/28/2023 17:43:03.720,0.813,0.563,0.164
4/28/2023 17:43:03.730,0.824,0.559,0.16
4/28/2023 17:43:03.740,0.855,0.551,0.172
4/28/2023 17:43:03.750,0.883,0.531,0.199
4/28/2023 17:43:03.760,0.895,0.516,0.219
4/28/2023 17:43:03.770,0.891,0.484,0.246
4/28/2023 17:43:03.780,0.887,0.461,0.27
4/28/2023 17:43:03.790,0.898,0.453,0.277
4/28/2023 17:43:03.800,0.922,0.453,0.293
4/28/2023 17:43:03.810,0.926,0.457,0.316
4/28/2023 17:43:03.820,0.918,0.461,0.332
4/28/2023 17:43:03.830,0.906,0.453,0.336
4/28/2023 17:43:03.840,0.906,0.43,0.328
4/28/2023 17:43:03.850,0.938,0.402,0.309
4/28/2023 17:43:03.860,0.984,0.375,0.281
4/28/2023 17:43:03.870,1.051,0.363,0.242
4/28/2023 17:43:03.880,1.113,0.359,0.207
4/28/2023 17:43:03.890,1.176,0.375,0.168
4/28/2023 17:43:03.900,1.199,0.395,0.133
4/28/2023 17:43:03.910,1.207,0.406,0.113
4/28/2023 17:43:03.920,1.215,0.418,0.102
4/28/2023 17:43:03.930,1.238,0.438,0.086
4/28/2023 17:43:03.940,1.27,0.449,0.074
4/28/2023 17:43:03.950,1.285,0.453,0.059
4/28/2023 17:43:03.960,1.289,0.453,0.039
4/28/2023 17:43:03.970,1.281,0.453,0.027
4/28/2023 17:43:03.980,1.258,0.453,0.008
4/28/2023 17:43:03.990,1.246,0.453,-0.004
4/28/2023 17:43:04.000,1.242,0.469,0.016
4/28/2023 17:43:04.010,1.238,0.5,0.051
4/28/2023 17:43:04.020,1.203,0.539,0.082
4/28/2023 17:43:04.030,1.148,0.574,0.102
4/28/2023 17:43:04.040,1.086,0.582,0.098
4/28/2023 17:43:04.050,1.027,0.563,0.066
4/28/2023 17:43:04.060,0.977,0.535,0.023
4/28/2023 17:43:04.070,0.949,0.508,-0.02
4/28/2023 17:43:04.080,0.922,0.48,-0.051
4/28/2023 17:43:04.090,0.91,0.461,-0.078
4/28/2023 17:43:04.100,0.902,0.438,-0.098
4/28/2023 17:43:04.110,0.91,0.418,-0.094
4/28/2023 17:43:04.120,0.922,0.402,-0.094
4/28/2023 17:43:04.130,0.941,0.402,-0.102
4/28/2023 17:43:04.140,0.965,0.395,-0.105
4/28/2023 17:43:04.150,0.984,0.383,-0.113
4/28/2023 17:43:04.160,1.008,0.379,-0.109
4/28/2023 17:43:04.170,1.027,0.379,-0.109
4/28/2023 17:43:04.180,1.039,0.375,-0.109
4/28/2023 17:43:04.190,1.035,0.375,-0.109
4/28/2023 17:43:04.200,1,0.371,-0.109
4/28/2023 17:43:04.210,0.945,0.355,-0.113
4/28/2023 17:43:04.220,0.891,0.355,-0.109
4/28/2023 17:43:04.230,0.844,0.352,-0.109
4/28/2023 17:43:04.240,0.816,0.355,-0.109
4/28/2023 17:43:04.250,0.785,0.367,-0.113
4/28/2023 17:43:04.260,0.758,0.371,-0.109
4/28/2023 17:43:04.270,0.734,0.371,-0.098
4/28/2023 17:43:04.280,0.727,0.367,-0.082
4/28/2023 17:43:04.290,0.699,0.379,-0.074
4/28/2023 17:43:04.300,0.684,0.398,-0.074
4/28/2023 17:43:04.310,0.672,0.402,-0.063
4/28/2023 17:43:04.320,0.664,0.395,-0.063
4/28/2023 17:43:04.330,0.668,0.383,-0.059
4/28/2023 17:43:04.340,0.684,0.363,-0.055
4/28/2023 17:43:04.350,0.715,0.352,-0.063
4/28/2023 17:43:04.360,0.738,0.344,-0.059
4/28/2023 17:43:04.370,0.77,0.336,-0.055
4/28/2023 17:43:04.380,0.809,0.336,-0.047
4/28/2023 17:43:04.390,0.84,0.344,-0.039
4/28/2023 17:43:04.400,0.859,0.332,-0.039
4/28/2023 17:43:04.410,0.871,0.324,-0.027
4/28/2023 17:43:04.420,0.879,0.324,-0.016
4/28/2023 17:43:04.430,0.902,0.32,-0.012
4/28/2023 17:43:04.440,0.945,0.316,-0.012
4/28/2023 17:43:04.450,1.012,0.316,-0.016
4/28/2023 17:43:04.460,1.102,0.313,-0.031
4/28/2023 17:43:04.470,1.203,0.305,-0.063
4/28/2023 17:43:04.480,1.297,0.297,-0.09
4/28/2023 17:43:04.490,1.355,0.277,-0.109
4/28/2023 17:43:04.500,1.332,0.258,-0.129
4/28/2023 17:43:04.510,1.242,0.242,-0.148
4/28/2023 17:43:04.520,1.137,0.234,-0.176
4/28/2023 17:43:04.530,1.098,0.23,-0.199
4/28/2023 17:43:04.540,1.141,0.238,-0.219
4/28/2023 17:43:04.550,1.211,0.266,-0.223
4/28/2023 17:43:04.560,1.238,0.293,-0.176
4/28/2023 17:43:04.570,1.191,0.336,-0.074
4/28/2023 17:43:04.580,1.094,0.387,0.031
4/28/2023 17:43:04.590,1,0.449,0.105
4/28/2023 17:43:04.600,0.945,0.496,0.156
4/28/2023 17:43:04.610,0.934,0.496,0.16
4/28/2023 17:43:04.620,0.934,0.434,0.129
4/28/2023 17:43:04.630,0.934,0.359,0.066
4/28/2023 17:43:04.640,0.941,0.293,0
4/28/2023 17:43:04.650,0.953,0.227,-0.047
4/28/2023 17:43:04.660,0.961,0.188,-0.051
4/28/2023 17:43:04.670,0.953,0.184,-0.023
4/28/2023 17:43:04.680,0.938,0.195,0.031
4/28/2023 17:43:04.690,0.918,0.219,0.09
4/28/2023 17:43:04.700,0.895,0.238,0.133
4/28/2023 17:43:04.710,0.848,0.246,0.148
4/28/2023 17:43:04.720,0.797,0.242,0.148
4/28/2023 17:43:04.730,0.742,0.254,0.129
4/28/2023 17:43:04.740,0.699,0.273,0.113
4/28/2023 17:43:04.750,0.676,0.273,0.113
4/28/2023 17:43:04.760,0.672,0.254,0.133
4/28/2023 17:43:04.770,0.68,0.234,0.168
4/28/2023 17:43:04.780,0.707,0.219,0.234
4/28/2023 17:43:04.790,0.73,0.184,0.301
4/28/2023 17:43:04.800,0.727,0.148,0.332
4/28/2023 17:43:04.810,0.703,0.168,0.305
4/28/2023 17:43:04.820,0.652,0.242,0.219
4/28/2023 17:43:04.830,0.602,0.363,0.121
4/28/2023 17:43:04.840,0.578,0.469,0.055
4/28/2023 17:43:04.850,0.59,0.496,0.035
4/28/2023 17:43:04.860,0.648,0.48,0.07
4/28/2023 17:43:04.870,0.727,0.473,0.113
4/28/2023 17:43:04.880,0.797,0.457,0.145
4/28/2023 17:43:04.890,0.855,0.43,0.18
4/28/2023 17:43:04.900,0.918,0.379,0.195
4/28/2023 17:43:04.910,0.973,0.309,0.188
4/28/2023 17:43:04.920,1.027,0.273,0.16
4/28/2023 17:43:04.930,1.086,0.27,0.117
4/28/2023 17:43:04.940,1.145,0.281,0.066
4/28/2023 17:43:04.950,1.184,0.305,0.023
4/28/2023 17:43:04.960,1.215,0.332,0
4/28/2023 17:43:04.970,1.262,0.355,-0.012
4/28/2023 17:43:04.980,1.309,0.375,-0.02
4/28/2023 17:43:04.990,1.355,0.402,-0.016
4/28/2023 17:43:05.000,1.363,0.434,-0.012
4/28/2023 17:43:05.010,1.332,0.449,-0.008
4/28/2023 17:43:05.020,1.262,0.453,-0.008
4/28/2023 17:43:05.030,1.203,0.453,-0.02
4/28/2023 17:43:05.040,1.195,0.461,-0.008
4/28/2023 17:43:05.050,1.211,0.488,0.035
4/28/2023 17:43:05.060,1.188,0.52,0.09
4/28/2023 17:43:05.070,1.121,0.547,0.141
4/28/2023 17:43:05.080,1.043,0.566,0.164
4/28/2023 17:43:05.090,0.98,0.566,0.168
4/28/2023 17:43:05.100,0.957,0.563,0.141
4/28/2023 17:43:05.110,0.961,0.543,0.086
4/28/2023 17:43:05.120,0.992,0.516,0.023
4/28/2023 17:43:05.130,1.02,0.469,-0.031
4/28/2023 17:43:05.140,1.043,0.398,-0.082
4/28/2023 17:43:05.150,1.059,0.344,-0.113
4/28/2023 17:43:05.160,1.066,0.32,-0.125
4/28/2023 17:43:05.170,1.063,0.332,-0.117
4/28/2023 17:43:05.180,1.043,0.355,-0.098
4/28/2023 17:43:05.190,1.016,0.379,-0.078
4/28/2023 17:43:05.200,0.969,0.395,-0.051
4/28/2023 17:43:05.210,0.914,0.387,-0.027
4/28/2023 17:43:05.220,0.863,0.398,-0.008
4/28/2023 17:43:05.230,0.832,0.402,0.012
4/28/2023 17:43:05.240,0.793,0.406,0.023
4/28/2023 17:43:05.250,0.77,0.414,0.027
4/28/2023 17:43:05.260,0.758,0.414,0.031
4/28/2023 17:43:05.270,0.746,0.418,0.035
4/28/2023 17:43:05.280,0.715,0.418,0.047
4/28/2023 17:43:05.290,0.684,0.414,0.051
4/28/2023 17:43:05.300,0.648,0.402,0.063
4/28/2023 17:43:05.310,0.621,0.383,0.066
4/28/2023 17:43:05.320,0.605,0.355,0.066
4/28/2023 17:43:05.330,0.617,0.328,0.066
4/28/2023 17:43:05.340,0.645,0.316,0.059
4/28/2023 17:43:05.350,0.684,0.293,0.047
4/28/2023 17:43:05.360,0.715,0.277,0.027
4/28/2023 17:43:05.370,0.742,0.273,0.012
4/28/2023 17:43:05.380,0.762,0.273,0.004
4/28/2023 17:43:05.390,0.781,0.266,-0.004
4/28/2023 17:43:05.400,0.793,0.27,-0.004
4/28/2023 17:43:05.410,0.813,0.266,0.004
4/28/2023 17:43:05.420,0.836,0.27,0.004
4/28/2023 17:43:05.430,0.863,0.27,-0.008
4/28/2023 17:43:05.440,0.918,0.273,-0.023
4/28/2023 17:43:05.450,0.992,0.273,-0.051
4/28/2023 17:43:05.460,1.082,0.289,-0.074
4/28/2023 17:43:05.470,1.152,0.293,-0.109
4/28/2023 17:43:05.480,1.188,0.293,-0.133
4/28/2023 17:43:05.490,1.199,0.281,-0.148
4/28/2023 17:43:05.500,1.176,0.277,-0.152
4/28/2023 17:43:05.510,1.168,0.266,-0.121
4/28/2023 17:43:05.520,1.156,0.25,-0.105
4/28/2023 17:43:05.530,1.207,0.242,-0.129
4/28/2023 17:43:05.540,1.313,0.254,-0.168
4/28/2023 17:43:05.550,1.406,0.289,-0.195
4/28/2023 17:43:05.560,1.414,0.324,-0.191
4/28/2023 17:43:05.570,1.305,0.367,-0.145
4/28/2023 17:43:05.580,1.141,0.434,-0.059
4/28/2023 17:43:05.590,1.004,0.516,0.031
4/28/2023 17:43:05.600,0.938,0.563,0.098
4/28/2023 17:43:05.610,0.984,0.574,0.109
4/28/2023 17:43:05.620,1.098,0.512,0.086
4/28/2023 17:43:05.630,1.211,0.434,0.055
4/28/2023 17:43:05.640,1.285,0.398,0.023
4/28/2023 17:43:05.650,1.289,0.379,0.004
4/28/2023 17:43:05.660,1.23,0.375,0.012
4/28/2023 17:43:05.670,1.121,0.375,0.039
4/28/2023 17:43:05.680,0.996,0.375,0.07
4/28/2023 17:43:05.690,0.891,0.371,0.113
4/28/2023 17:43:05.700,0.809,0.34,0.152
4/28/2023 17:43:05.710,0.727,0.273,0.195
4/28/2023 17:43:05.720,0.668,0.215,0.199
4/28/2023 17:43:05.730,0.625,0.246,0.207
4/28/2023 17:43:05.740,0.586,0.238,0.191
4/28/2023 17:43:05.750,0.555,0.23,0.184
4/28/2023 17:43:05.760,0.547,0.215,0.18
4/28/2023 17:43:05.770,0.563,0.219,0.18
4/28/2023 17:43:05.780,0.57,0.242,0.168
4/28/2023 17:43:05.790,0.574,0.281,0.152
4/28/2023 17:43:05.800,0.578,0.324,0.133
4/28/2023 17:43:05.810,0.59,0.367,0.129
4/28/2023 17:43:05.820,0.613,0.387,0.121
4/28/2023 17:43:05.830,0.648,0.406,0.133
4/28/2023 17:43:05.840,0.688,0.418,0.145
4/28/2023 17:43:05.850,0.723,0.418,0.152
4/28/2023 17:43:05.860,0.758,0.41,0.148
4/28/2023 17:43:05.870,0.781,0.402,0.145
4/28/2023 17:43:05.880,0.793,0.387,0.133
4/28/2023 17:43:05.890,0.805,0.379,0.121
4/28/2023 17:43:05.900,0.828,0.379,0.113
4/28/2023 17:43:05.910,0.852,0.367,0.102
4/28/2023 17:43:05.920,0.887,0.371,0.09
4/28/2023 17:43:05.930,0.93,0.375,0.074
4/28/2023 17:43:05.940,0.992,0.387,0.063
4/28/2023 17:43:05.950,1.078,0.41,0.055
4/28/2023 17:43:05.960,1.164,0.441,0.059
4/28/2023 17:43:05.970,1.238,0.465,0.07
4/28/2023 17:43:05.980,1.266,0.484,0.086
4/28/2023 17:43:05.990,1.23,0.496,0.105
4/28/2023 17:43:06.000,1.145,0.477,0.09
4/28/2023 17:43:06.010,1.098,0.438,0.039
4/28/2023 17:43:06.020,1.121,0.422,0.012
4/28/2023 17:43:06.030,1.215,0.445,0.008
4/28/2023 17:43:06.040,1.297,0.488,0.031
4/28/2023 17:43:06.050,1.309,0.527,0.07
4/28/2023 17:43:06.060,1.258,0.551,0.09
4/28/2023 17:43:06.070,1.188,0.574,0.09
4/28/2023 17:43:06.080,1.145,0.586,0.066
4/28/2023 17:43:06.090,1.125,0.574,0.016
4/28/2023 17:43:06.100,1.133,0.527,-0.055
4/28/2023 17:43:06.110,1.145,0.461,-0.125
4/28/2023 17:43:06.120,1.156,0.387,-0.176
4/28/2023 17:43:06.130,1.16,0.34,-0.191
4/28/2023 17:43:06.140,1.16,0.336,-0.176
4/28/2023 17:43:06.150,1.145,0.355,-0.141
4/28/2023 17:43:06.160,1.133,0.387,-0.086
4/28/2023 17:43:06.170,1.105,0.418,-0.031
4/28/2023 17:43:06.180,1.07,0.438,0.023
4/28/2023 17:43:06.190,1.027,0.441,0.051
4/28/2023 17:43:06.200,0.977,0.449,0.059
4/28/2023 17:43:06.210,0.898,0.445,0.023
4/28/2023 17:43:06.220,0.793,0.418,-0.055
4/28/2023 17:43:06.230,0.773,0.375,-0.063
4/28/2023 17:43:06.240,0.758,0.375,-0.008
4/28/2023 17:43:06.250,0.691,0.332,0.023
4/28/2023 17:43:06.260,0.629,0.277,0.043
4/28/2023 17:43:06.270,0.586,0.27,0.055
4/28/2023 17:43:06.280,0.559,0.281,0.063
4/28/2023 17:43:06.290,0.559,0.281,0.074
4/28/2023 17:43:06.300,0.57,0.273,0.086
4/28/2023 17:43:06.310,0.586,0.293,0.09
4/28/2023 17:43:06.320,0.594,0.313,0.086
4/28/2023 17:43:06.330,0.586,0.316,0.074
4/28/2023 17:43:06.340,0.586,0.309,0.066
4/28/2023 17:43:06.350,0.602,0.309,0.055
4/28/2023 17:43:06.360,0.645,0.301,0.039
4/28/2023 17:43:06.370,0.691,0.289,0.027
4/28/2023 17:43:06.380,0.727,0.273,0.02
4/28/2023 17:43:06.390,0.746,0.25,0.012
4/28/2023 17:43:06.400,0.777,0.25,0.012
4/28/2023 17:43:06.410,0.82,0.266,0.008
4/28/2023 17:43:06.420,0.887,0.27,0
4/28/2023 17:43:06.430,0.973,0.273,-0.027
4/28/2023 17:43:06.440,1.074,0.281,-0.047
4/28/2023 17:43:06.450,1.168,0.297,-0.063
4/28/2023 17:43:06.460,1.238,0.316,-0.063
4/28/2023 17:43:06.470,1.285,0.336,-0.059
4/28/2023 17:43:06.480,1.313,0.371,-0.031
4/28/2023 17:43:06.490,1.305,0.383,-0.02
4/28/2023 17:43:06.500,1.285,0.355,-0.063
4/28/2023 17:43:06.510,1.344,0.332,-0.137
4/28/2023 17:43:06.520,1.461,0.34,-0.211
4/28/2023 17:43:06.530,1.551,0.363,-0.234
4/28/2023 17:43:06.540,1.516,0.387,-0.191
4/28/2023 17:43:06.550,1.359,0.414,-0.098
4/28/2023 17:43:06.560,1.141,0.438,0.023
4/28/2023 17:43:06.570,0.965,0.473,0.129
4/28/2023 17:43:06.580,0.887,0.488,0.156
4/28/2023 17:43:06.590,0.949,0.461,0.129
4/28/2023 17:43:06.600,1.102,0.387,0.07
4/28/2023 17:43:06.610,1.262,0.309,0.004
4/28/2023 17:43:06.620,1.344,0.27,-0.043
4/28/2023 17:43:06.630,1.34,0.258,-0.063
4/28/2023 17:43:06.640,1.227,0.246,-0.051
4/28/2023 17:43:06.650,1.055,0.234,-0.016
4/28/2023 17:43:06.660,0.902,0.223,0.043
4/28/2023 17:43:06.670,0.789,0.227,0.098
4/28/2023 17:43:06.680,0.727,0.234,0.152
4/28/2023 17:43:06.690,0.68,0.223,0.176
4/28/2023 17:43:06.700,0.645,0.23,0.172
4/28/2023 17:43:06.710,0.609,0.234,0.16
4/28/2023 17:43:06.720,0.594,0.219,0.148
4/28/2023 17:43:06.730,0.574,0.211,0.145
4/28/2023 17:43:06.740,0.555,0.203,0.145
4/28/2023 17:43:06.750,0.523,0.211,0.137
4/28/2023 17:43:06.760,0.496,0.25,0.121
4/28/2023 17:43:06.770,0.484,0.305,0.109
4/28/2023 17:43:06.780,0.492,0.363,0.109
4/28/2023 17:43:06.790,0.512,0.391,0.113
4/28/2023 17:43:06.800,0.547,0.395,0.117
4/28/2023 17:43:06.810,0.586,0.398,0.121
4/28/2023 17:43:06.820,0.629,0.402,0.121
4/28/2023 17:43:06.830,0.672,0.406,0.129
4/28/2023 17:43:06.840,0.707,0.414,0.137
4/28/2023 17:43:06.850,0.727,0.418,0.141
4/28/2023 17:43:06.860,0.734,0.414,0.137
4/28/2023 17:43:06.870,0.754,0.398,0.129
4/28/2023 17:43:06.880,0.797,0.398,0.117
4/28/2023 17:43:06.890,0.887,0.41,0.086
4/28/2023 17:43:06.900,1,0.414,0.051
4/28/2023 17:43:06.910,1.105,0.418,0.023
4/28/2023 17:43:06.920,1.199,0.422,0.004
4/28/2023 17:43:06.930,1.258,0.434,-0.016
4/28/2023 17:43:06.940,1.293,0.457,-0.027
4/28/2023 17:43:06.950,1.297,0.484,-0.031
4/28/2023 17:43:06.960,1.262,0.5,-0.035
4/28/2023 17:43:06.970,1.199,0.5,-0.035
4/28/2023 17:43:06.980,1.184,0.488,-0.031
4/28/2023 17:43:06.990,1.27,0.527,0.008
4/28/2023 17:43:07.000,1.371,0.598,0.078
4/28/2023 17:43:07.010,1.406,0.652,0.145
4/28/2023 17:43:07.020,1.344,0.688,0.191
4/28/2023 17:43:07.030,1.238,0.695,0.203
4/28/2023 17:43:07.040,1.152,0.684,0.18
4/28/2023 17:43:07.050,1.094,0.656,0.129
4/28/2023 17:43:07.060,1.078,0.602,0.07
4/28/2023 17:43:07.070,1.086,0.523,0.004
4/28/2023 17:43:07.080,1.117,0.441,-0.055
4/28/2023 17:43:07.090,1.16,0.391,-0.09
4/28/2023 17:43:07.100,1.195,0.383,-0.098
4/28/2023 17:43:07.110,1.219,0.398,-0.074
4/28/2023 17:43:07.120,1.207,0.375,-0.039
4/28/2023 17:43:07.130,1.133,0.375,-0.02
4/28/2023 17:43:07.140,1.016,0.371,-0.02
4/28/2023 17:43:07.150,0.914,0.371,-0.039
4/28/2023 17:43:07.160,0.898,0.348,0.035
4/28/2023 17:43:07.170,0.855,0.277,0.141
4/28/2023 17:43:07.180,0.77,0.152,0.199
4/28/2023 17:43:07.190,0.707,0.137,0.195
4/28/2023 17:43:07.200,0.676,0.191,0.176
4/28/2023 17:43:07.210,0.652,0.246,0.16
4/28/2023 17:43:07.220,0.629,0.258,0.148
4/28/2023 17:43:07.230,0.605,0.266,0.125
4/28/2023 17:43:07.240,0.59,0.305,0.105
4/28/2023 17:43:07.250,0.578,0.359,0.086
4/28/2023 17:43:07.260,0.57,0.391,0.074
4/28/2023 17:43:07.270,0.555,0.398,0.059
4/28/2023 17:43:07.280,0.555,0.406,0.055
4/28/2023 17:43:07.290,0.566,0.406,0.051
4/28/2023 17:43:07.300,0.594,0.387,0.039
4/28/2023 17:43:07.310,0.625,0.359,0.023
4/28/2023 17:43:07.320,0.66,0.324,0.008
4/28/2023 17:43:07.330,0.699,0.293,0
4/28/2023 17:43:07.340,0.754,0.277,0
4/28/2023 17:43:07.350,0.805,0.27,0
4/28/2023 17:43:07.360,0.84,0.266,0.004
4/28/2023 17:43:07.370,0.875,0.258,0.016
4/28/2023 17:43:07.380,0.93,0.254,0.02
4/28/2023 17:43:07.390,1,0.258,0.016
4/28/2023 17:43:07.400,1.086,0.262,-0.008
4/28/2023 17:43:07.410,1.164,0.262,-0.043
4/28/2023 17:43:07.420,1.223,0.266,-0.078
4/28/2023 17:43:07.430,1.254,0.281,-0.098
4/28/2023 17:43:07.440,1.266,0.289,-0.109
4/28/2023 17:43:07.450,1.301,0.277,-0.129
4/28/2023 17:43:07.460,1.406,0.285,-0.172
4/28/2023 17:43:07.470,1.527,0.32,-0.211
4/28/2023 17:43:07.480,1.602,0.359,-0.227
4/28/2023 17:43:07.490,1.547,0.402,-0.215
4/28/2023 17:43:07.500,1.367,0.457,-0.172
4/28/2023 17:43:07.510,1.184,0.512,-0.066
4/28/2023 17:43:07.520,1.023,0.586,0.063
4/28/2023 17:43:07.530,0.93,0.652,0.133
4/28/2023 17:43:07.540,0.941,0.648,0.141
4/28/2023 17:43:07.550,1.086,0.559,0.094
4/28/2023 17:43:07.560,1.246,0.434,0.016
4/28/2023 17:43:07.570,1.324,0.328,-0.059
4/28/2023 17:43:07.580,1.313,0.277,-0.09
4/28/2023 17:43:07.590,1.23,0.262,-0.086
4/28/2023 17:43:07.600,1.105,0.262,-0.031
4/28/2023 17:43:07.610,0.984,0.27,0.031
4/28/2023 17:43:07.620,0.879,0.27,0.094
4/28/2023 17:43:07.630,0.793,0.25,0.16
4/28/2023 17:43:07.640,0.699,0.152,0.203
4/28/2023 17:43:07.650,0.648,0.129,0.211
4/28/2023 17:43:07.660,0.598,0.152,0.188
4/28/2023 17:43:07.670,0.59,0.16,0.219
4/28/2023 17:43:07.680,0.613,0.121,0.238
4/28/2023 17:43:07.690,0.617,0.094,0.25
4/28/2023 17:43:07.700,0.625,0.105,0.254
4/28/2023 17:43:07.710,0.617,0.141,0.223
4/28/2023 17:43:07.720,0.598,0.211,0.168
4/28/2023 17:43:07.730,0.566,0.313,0.113
4/28/2023 17:43:07.740,0.539,0.406,0.07
4/28/2023 17:43:07.750,0.527,0.477,0.047
4/28/2023 17:43:07.760,0.531,0.52,0.016
4/28/2023 17:43:07.770,0.563,0.551,0.004
4/28/2023 17:43:07.780,0.613,0.547,0.02
4/28/2023 17:43:07.790,0.668,0.523,0.051
4/28/2023 17:43:07.800,0.695,0.512,0.086
4/28/2023 17:43:07.810,0.699,0.484,0.121
4/28/2023 17:43:07.820,0.707,0.465,0.145
4/28/2023 17:43:07.830,0.734,0.445,0.16
4/28/2023 17:43:07.840,0.785,0.418,0.152
4/28/2023 17:43:07.850,0.863,0.398,0.125
4/28/2023 17:43:07.860,0.953,0.379,0.09
4/28/2023 17:43:07.870,1.063,0.375,0.047
4/28/2023 17:43:07.880,1.164,0.375,0.012
4/28/2023 17:43:07.890,1.266,0.402,-0.016
4/28/2023 17:43:07.900,1.336,0.445,-0.039
4/28/2023 17:43:07.910,1.355,0.496,-0.055
4/28/2023 17:43:07.920,1.348,0.527,-0.082
4/28/2023 17:43:07.930,1.348,0.543,-0.117
4/28/2023 17:43:07.940,1.41,0.586,-0.121
4/28/2023 17:43:07.950,1.469,0.645,-0.09
4/28/2023 17:43:07.960,1.469,0.703,-0.023
4/28/2023 17:43:07.970,1.395,0.742,0.063
4/28/2023 17:43:07.980,1.277,0.766,0.145
4/28/2023 17:43:07.990,1.176,0.738,0.188
4/28/2023 17:43:08.000,1.102,0.688,0.172
4/28/2023 17:43:08.010,1.074,0.602,0.121
4/28/2023 17:43:08.020,1.063,0.5,0.063
4/28/2023 17:43:08.030,1.09,0.414,0.02
4/28/2023 17:43:08.040,1.129,0.355,-0.02
4/28/2023 17:43:08.050,1.148,0.34,-0.031
4/28/2023 17:43:08.060,1.145,0.348,-0.016
4/28/2023 17:43:08.070,1.094,0.371,-0.039
4/28/2023 17:43:08.080,1.004,0.379,-0.055
4/28/2023 17:43:08.090,0.914,0.289,-0.078
4/28/2023 17:43:08.100,0.859,0.23,-0.117
4/28/2023 17:43:08.110,0.828,0.281,-0.191
4/28/2023 17:43:08.120,0.805,0.336,-0.18
4/28/2023 17:43:08.130,0.824,0.313,-0.082
4/28/2023 17:43:08.140,0.832,0.148,0.125
4/28/2023 17:43:08.150,0.758,-0.133,0.234
4/28/2023 17:43:08.160,0.691,-0.199,0.289
4/28/2023 17:43:08.170,0.684,-0.129,0.273
4/28/2023 17:43:08.180,0.688,-0.023,0.254
4/28/2023 17:43:08.190,0.672,0.078,0.219
4/28/2023 17:43:08.200,0.648,0.164,0.176
4/28/2023 17:43:08.210,0.621,0.254,0.121
4/28/2023 17:43:08.220,0.594,0.332,0.063
4/28/2023 17:43:08.230,0.582,0.391,0.012
4/28/2023 17:43:08.240,0.582,0.441,-0.02
4/28/2023 17:43:08.250,0.582,0.484,-0.031
4/28/2023 17:43:08.260,0.602,0.516,-0.027
4/28/2023 17:43:08.270,0.637,0.52,-0.012
4/28/2023 17:43:08.280,0.684,0.492,0
4/28/2023 17:43:08.290,0.727,0.43,0.02
4/28/2023 17:43:08.300,0.738,0.359,0.035
4/28/2023 17:43:08.310,0.734,0.309,0.047
4/28/2023 17:43:08.320,0.738,0.281,0.051
4/28/2023 17:43:08.330,0.754,0.262,0.055
4/28/2023 17:43:08.340,0.793,0.234,0.047
4/28/2023 17:43:08.350,0.871,0.211,0.035
4/28/2023 17:43:08.360,0.973,0.191,0.008
4/28/2023 17:43:08.370,1.094,0.199,-0.035
4/28/2023 17:43:08.380,1.215,0.23,-0.07
4/28/2023 17:43:08.390,1.301,0.262,-0.098
4/28/2023 17:43:08.400,1.352,0.281,-0.102
4/28/2023 17:43:08.410,1.363,0.297,-0.086
4/28/2023 17:43:08.420,1.336,0.313,-0.063
4/28/2023 17:43:08.430,1.332,0.313,-0.063
4/28/2023 17:43:08.440,1.398,0.316,-0.113
4/28/2023 17:43:08.450,1.492,0.332,-0.18
4/28/2023 17:43:08.460,1.531,0.344,-0.215
4/28/2023 17:43:08.470,1.48,0.348,-0.199
4/28/2023 17:43:08.480,1.344,0.383,-0.145
4/28/2023 17:43:08.490,1.184,0.441,-0.059
4/28/2023 17:43:08.500,1.035,0.508,0.035
4/28/2023 17:43:08.510,0.961,0.563,0.102
4/28/2023 17:43:08.520,0.953,0.547,0.113
4/28/2023 17:43:08.530,1.043,0.461,0.078
4/28/2023 17:43:08.540,1.16,0.359,0.027
4/28/2023 17:43:08.550,1.223,0.266,-0.039
4/28/2023 17:43:08.560,1.211,0.223,-0.074
4/28/2023 17:43:08.570,1.137,0.207,-0.07
4/28/2023 17:43:08.580,1.02,0.191,-0.031
4/28/2023 17:43:08.590,0.898,0.188,0.023
4/28/2023 17:43:08.600,0.785,0.188,0.086
4/28/2023 17:43:08.610,0.695,0.191,0.133
4/28/2023 17:43:08.620,0.633,0.223,0.16
4/28/2023 17:43:08.630,0.605,0.258,0.18
4/28/2023 17:43:08.640,0.598,0.266,0.211
4/28/2023 17:43:08.650,0.605,0.23,0.23
4/28/2023 17:43:08.660,0.617,0.207,0.266
4/28/2023 17:43:08.670,0.605,0.16,0.266
4/28/2023 17:43:08.680,0.59,0.137,0.246
4/28/2023 17:43:08.690,0.574,0.168,0.23
4/28/2023 17:43:08.700,0.551,0.223,0.188
4/28/2023 17:43:08.710,0.523,0.293,0.113
4/28/2023 17:43:08.720,0.5,0.422,0.031
4/28/2023 17:43:08.730,0.496,0.555,-0.02
4/28/2023 17:43:08.740,0.535,0.594,-0.012
4/28/2023 17:43:08.750,0.602,0.539,0.004
4/28/2023 17:43:08.760,0.648,0.48,0.031
4/28/2023 17:43:08.770,0.684,0.422,0.047
4/28/2023 17:43:08.780,0.703,0.375,0.074
4/28/2023 17:43:08.790,0.711,0.344,0.102
4/28/2023 17:43:08.800,0.723,0.328,0.129
4/28/2023 17:43:08.810,0.77,0.324,0.152
4/28/2023 17:43:08.820,0.848,0.324,0.141
4/28/2023 17:43:08.830,0.957,0.324,0.113
4/28/2023 17:43:08.840,1.066,0.332,0.063
4/28/2023 17:43:08.850,1.164,0.348,0.016
4/28/2023 17:43:08.860,1.238,0.371,-0.023
4/28/2023 17:43:08.870,1.266,0.402,-0.031
4/28/2023 17:43:08.880,1.242,0.441,-0.035
4/28/2023 17:43:08.890,1.203,0.469,-0.02
4/28/2023 17:43:08.900,1.18,0.5,0.008
4/28/2023 17:43:08.910,1.164,0.523,0.02
4/28/2023 17:43:08.920,1.156,0.504,0
4/28/2023 17:43:08.930,1.207,0.504,-0.031
4/28/2023 17:43:08.940,1.309,0.539,-0.016
4/28/2023 17:43:08.950,1.371,0.602,0.012
4/28/2023 17:43:08.960,1.34,0.645,0.063
4/28/2023 17:43:08.970,1.23,0.672,0.098
4/28/2023 17:43:08.980,1.113,0.688,0.102
4/28/2023 17:43:08.990,1.059,0.676,0.063
4/28/2023 17:43:09.000,1.055,0.633,-0.008
4/28/2023 17:43:09.010,1.125,0.563,-0.094
4/28/2023 17:43:09.020,1.223,0.496,-0.164
4/28/2023 17:43:09.030,1.293,0.441,-0.199
4/28/2023 17:43:09.040,1.336,0.414,-0.191
4/28/2023 17:43:09.050,1.324,0.422,-0.148
4/28/2023 17:43:09.060,1.262,0.445,-0.094
4/28/2023 17:43:09.070,1.176,0.465,-0.047
4/28/2023 17:43:09.080,1.094,0.477,-0.004
4/28/2023 17:43:09.090,1.016,0.48,0.023
4/28/2023 17:43:09.100,0.926,0.465,0.035
4/28/2023 17:43:09.110,0.84,0.441,0.031
4/28/2023 17:43:09.120,0.77,0.418,0.02
4/28/2023 17:43:09.130,0.699,0.391,0.008
4/28/2023 17:43:09.140,0.656,0.367,0
4/28/2023 17:43:09.150,0.629,0.344,-0.004
4/28/2023 17:43:09.160,0.609,0.32,-0.004
4/28/2023 17:43:09.170,0.602,0.313,0
4/28/2023 17:43:09.180,0.598,0.309,0.012
4/28/2023 17:43:09.190,0.605,0.301,0.023
4/28/2023 17:43:09.200,0.609,0.289,0.031
4/28/2023 17:43:09.210,0.605,0.285,0.035
4/28/2023 17:43:09.220,0.598,0.281,0.039
4/28/2023 17:43:09.230,0.594,0.277,0.035
4/28/2023 17:43:09.240,0.613,0.27,0.039
4/28/2023 17:43:09.250,0.648,0.266,0.039
4/28/2023 17:43:09.260,0.691,0.258,0.031
4/28/2023 17:43:09.270,0.719,0.242,0.027
4/28/2023 17:43:09.280,0.734,0.227,0.016
4/28/2023 17:43:09.290,0.754,0.227,0.004
4/28/2023 17:43:09.300,0.785,0.227,-0.004
4/28/2023 17:43:09.310,0.832,0.227,-0.012
4/28/2023 17:43:09.320,0.914,0.234,-0.035
4/28/2023 17:43:09.330,1.023,0.25,-0.07
4/28/2023 17:43:09.340,1.141,0.258,-0.113
4/28/2023 17:43:09.350,1.258,0.262,-0.148
4/28/2023 17:43:09.360,1.34,0.258,-0.176
4/28/2023 17:43:09.370,1.371,0.258,-0.172
4/28/2023 17:43:09.380,1.328,0.266,-0.148
4/28/2023 17:43:09.390,1.25,0.262,-0.125
4/28/2023 17:43:09.400,1.234,0.242,-0.152
4/28/2023 17:43:09.410,1.344,0.258,-0.195
4/28/2023 17:43:09.420,1.48,0.293,-0.219
4/28/2023 17:43:09.430,1.496,0.313,-0.219
4/28/2023 17:43:09.440,1.359,0.313,-0.195
4/28/2023 17:43:09.450,1.152,0.316,-0.156
4/28/2023 17:43:09.460,0.953,0.336,-0.098
4/28/2023 17:43:09.470,0.852,0.367,-0.043
4/28/2023 17:43:09.480,0.895,0.43,-0.02
4/28/2023 17:43:09.490,1.07,0.473,-0.016
4/28/2023 17:43:09.500,1.266,0.473,-0.023
4/28/2023 17:43:09.510,1.387,0.461,-0.027
4/28/2023 17:43:09.520,1.387,0.438,-0.039
4/28/2023 17:43:09.530,1.281,0.422,-0.043
4/28/2023 17:43:09.540,1.133,0.414,-0.039
4/28/2023 17:43:09.550,0.984,0.41,-0.016
4/28/2023 17:43:09.560,0.859,0.422,0.043
4/28/2023 17:43:09.570,0.793,0.422,0.105
4/28/2023 17:43:09.580,0.738,0.383,0.184
4/28/2023 17:43:09.590,0.695,0.305,0.25
4/28/2023 17:43:09.600,0.668,0.234,0.32
4/28/2023 17:43:09.610,0.664,0.148,0.375
4/28/2023 17:43:09.620,0.656,0.117,0.41
4/28/2023 17:43:09.630,0.672,0.063,0.461
4/28/2023 17:43:09.640,0.672,0,0.488
4/28/2023 17:43:09.650,0.641,-0.016,0.41
4/28/2023 17:43:09.660,0.566,0.113,0.25
4/28/2023 17:43:09.670,0.488,0.383,0.078
4/28/2023 17:43:09.680,0.426,0.668,-0.039
4/28/2023 17:43:09.690,0.395,0.84,-0.078
4/28/2023 17:43:09.700,0.445,0.84,-0.059
4/28/2023 17:43:09.710,0.52,0.766,-0.023
4/28/2023 17:43:09.720,0.563,0.656,0.008
4/28/2023 17:43:09.730,0.613,0.563,0.023
4/28/2023 17:43:09.740,0.668,0.473,0.063
4/28/2023 17:43:09.750,0.723,0.371,0.09
4/28/2023 17:43:09.760,0.777,0.289,0.117
4/28/2023 17:43:09.770,0.824,0.234,0.129
4/28/2023 17:43:09.780,0.871,0.207,0.117
4/28/2023 17:43:09.790,0.93,0.203,0.086
4/28/2023 17:43:09.800,0.996,0.23,0.043
4/28/2023 17:43:09.810,1.09,0.293,0.004
4/28/2023 17:43:09.820,1.199,0.359,-0.004
4/28/2023 17:43:09.830,1.277,0.402,-0.016
4/28/2023 17:43:09.840,1.309,0.43,-0.051
4/28/2023 17:43:09.850,1.34,0.457,-0.094
4/28/2023 17:43:09.860,1.422,0.52,-0.117
4/28/2023 17:43:09.870,1.574,0.621,-0.121
4/28/2023 17:43:09.880,1.715,0.727,-0.102
4/28/2023 17:43:09.890,1.738,0.797,-0.078
4/28/2023 17:43:09.900,1.605,0.809,-0.059
4/28/2023 17:43:09.910,1.418,0.785,-0.066
4/28/2023 17:43:09.920,1.242,0.727,-0.098
4/28/2023 17:43:09.930,1.145,0.648,-0.133
4/28/2023 17:43:09.940,1.141,0.555,-0.16
4/28/2023 17:43:09.950,1.207,0.477,-0.16
4/28/2023 17:43:09.960,1.285,0.414,-0.133
4/28/2023 17:43:09.970,1.313,0.398,-0.098
4/28/2023 17:43:09.980,1.289,0.418,-0.031
4/28/2023 17:43:09.990,1.18,0.387,0
4/28/2023 17:43:10.000,0.973,0.34,-0.039
4/28/2023 17:43:10.010,0.801,0.34,-0.129
4/28/2023 17:43:10.020,0.715,0.406,-0.18
4/28/2023 17:43:10.030,0.656,0.434,-0.18
4/28/2023 17:43:10.040,0.699,0.348,-0.063
4/28/2023 17:43:10.050,0.75,0.07,0.133
4/28/2023 17:43:10.060,0.703,-0.215,0.281
4/28/2023 17:43:10.070,0.602,-0.375,0.332
4/28/2023 17:43:10.080,0.578,-0.293,0.297
4/28/2023 17:43:10.090,0.621,-0.141,0.25
4/28/2023 17:43:10.100,0.629,-0.023,0.215
4/28/2023 17:43:10.110,0.609,0.07,0.176
4/28/2023 17:43:10.120,0.574,0.172,0.133
4/28/2023 17:43:10.130,0.535,0.277,0.098
4/28/2023 17:43:10.140,0.512,0.371,0.078
4/28/2023 17:43:10.150,0.504,0.438,0.063
4/28/2023 17:43:10.160,0.52,0.492,0.031
4/28/2023 17:43:10.170,0.563,0.527,0.008
4/28/2023 17:43:10.180,0.625,0.527,-0.016
4/28/2023 17:43:10.190,0.684,0.496,-0.023
4/28/2023 17:43:10.200,0.734,0.438,-0.027
4/28/2023 17:43:10.210,0.773,0.367,-0.02
4/28/2023 17:43:10.220,0.785,0.309,0
4/28/2023 17:43:10.230,0.781,0.27,0.004
4/28/2023 17:43:10.240,0.801,0.258,0
4/28/2023 17:43:10.250,0.84,0.242,-0.016
4/28/2023 17:43:10.260,0.902,0.211,-0.035
4/28/2023 17:43:10.270,0.988,0.188,-0.055
4/28/2023 17:43:10.280,1.109,0.203,-0.066
4/28/2023 17:43:10.290,1.238,0.246,-0.074
4/28/2023 17:43:10.300,1.328,0.285,-0.07
4/28/2023 17:43:10.310,1.324,0.316,-0.066
4/28/2023 17:43:10.320,1.238,0.336,-0.055
4/28/2023 17:43:10.330,1.168,0.34,-0.09
4/28/2023 17:43:10.340,1.242,0.359,-0.172
4/28/2023 17:43:10.350,1.395,0.371,-0.25
4/28/2023 17:43:10.360,1.496,0.375,-0.277
4/28/2023 17:43:10.370,1.48,0.391,-0.242
4/28/2023 17:43:10.380,1.363,0.422,-0.148
4/28/2023 17:43:10.390,1.191,0.488,-0.012
4/28/2023 17:43:10.400,1.063,0.582,0.105
4/28/2023 17:43:10.410,1.031,0.648,0.156
4/28/2023 17:43:10.420,1.145,0.629,0.137
4/28/2023 17:43:10.430,1.309,0.516,0.074
4/28/2023 17:43:10.440,1.438,0.371,-0.004
4/28/2023 17:43:10.450,1.484,0.262,-0.07
4/28/2023 17:43:10.460,1.438,0.184,-0.086
4/28/2023 17:43:10.470,1.309,0.156,-0.063
4/28/2023 17:43:10.480,1.133,0.148,-0.012
4/28/2023 17:43:10.490,0.973,0.172,0.07
4/28/2023 17:43:10.500,0.855,0.191,0.168
4/28/2023 17:43:10.510,0.77,0.188,0.242
4/28/2023 17:43:10.520,0.676,0.195,0.281
4/28/2023 17:43:10.530,0.598,0.188,0.254
4/28/2023 17:43:10.540,0.543,0.219,0.254
4/28/2023 17:43:10.550,0.516,0.219,0.32
4/28/2023 17:43:10.560,0.492,0.125,0.387
4/28/2023 17:43:10.570,0.492,0.039,0.414
4/28/2023 17:43:10.580,0.484,0.055,0.398
4/28/2023 17:43:10.590,0.457,0.145,0.34
4/28/2023 17:43:10.600,0.438,0.258,0.281
4/28/2023 17:43:10.610,0.438,0.355,0.227
4/28/2023 17:43:10.620,0.445,0.398,0.18
4/28/2023 17:43:10.630,0.457,0.406,0.137
4/28/2023 17:43:10.640,0.465,0.398,0.094
4/28/2023 17:43:10.650,0.492,0.391,0.066
4/28/2023 17:43:10.660,0.551,0.395,0.059
4/28/2023 17:43:10.670,0.629,0.387,0.063
4/28/2023 17:43:10.680,0.711,0.379,0.066
4/28/2023 17:43:10.690,0.777,0.375,0.066
4/28/2023 17:43:10.700,0.82,0.363,0.07
4/28/2023 17:43:10.710,0.859,0.348,0.059
4/28/2023 17:43:10.720,0.926,0.336,0.035
4/28/2023 17:43:10.730,1,0.34,0.016
4/28/2023 17:43:10.740,1.094,0.359,-0.012
4/28/2023 17:43:10.750,1.191,0.395,-0.02
4/28/2023 17:43:10.760,1.285,0.438,-0.016
4/28/2023 17:43:10.770,1.32,0.473,-0.004
4/28/2023 17:43:10.780,1.277,0.504,0.027
4/28/2023 17:43:10.790,1.188,0.52,0.043
4/28/2023 17:43:10.800,1.105,0.527,0.023
4/28/2023 17:43:10.810,1.125,0.551,0.004
4/28/2023 17:43:10.820,1.234,0.594,0.012
4/28/2023 17:43:10.830,1.309,0.648,0.059
4/28/2023 17:43:10.840,1.277,0.703,0.113
4/28/2023 17:43:10.850,1.18,0.754,0.156
4/28/2023 17:43:10.860,1.09,0.793,0.18
4/28/2023 17:43:10.870,1.02,0.805,0.168
4/28/2023 17:43:10.880,0.988,0.762,0.133
4/28/2023 17:43:10.890,1.031,0.699,0.074
4/28/2023 17:43:10.900,1.125,0.621,0.004
4/28/2023 17:43:10.910,1.25,0.535,-0.066
4/28/2023 17:43:10.920,1.375,0.469,-0.113
4/28/2023 17:43:10.930,1.418,0.434,-0.133
4/28/2023 17:43:10.940,1.438,0.43,-0.066
4/28/2023 17:43:10.950,1.301,0.359,-0.063
4/28/2023 17:43:10.960,1.152,0.379,-0.051
4/28/2023 17:43:10.970,1.07,0.367,0.008
4/28/2023 17:43:10.980,0.98,0.328,0.105
4/28/2023 17:43:10.990,0.883,0.238,0.172
4/28/2023 17:43:11.000,0.785,0.195,0.191
4/28/2023 17:43:11.010,0.75,0.227,0.199
4/28/2023 17:43:11.020,0.715,0.262,0.188
4/28/2023 17:43:11.030,0.676,0.266,0.188
4/28/2023 17:43:11.040,0.637,0.262,0.16
4/28/2023 17:43:11.050,0.59,0.273,0.137
4/28/2023 17:43:11.060,0.555,0.301,0.102
4/28/2023 17:43:11.070,0.527,0.328,0.074
4/28/2023 17:43:11.080,0.508,0.344,0.055
4/28/2023 17:43:11.090,0.512,0.363,0.039
4/28/2023 17:43:11.100,0.52,0.367,0.039
4/28/2023 17:43:11.110,0.535,0.363,0.043
4/28/2023 17:43:11.120,0.555,0.355,0.047
4/28/2023 17:43:11.130,0.563,0.328,0.059
4/28/2023 17:43:11.140,0.57,0.313,0.066
4/28/2023 17:43:11.150,0.578,0.305,0.07
4/28/2023 17:43:11.160,0.621,0.297,0.078
4/28/2023 17:43:11.170,0.672,0.289,0.074
4/28/2023 17:43:11.180,0.723,0.289,0.066
4/28/2023 17:43:11.190,0.773,0.285,0.059
4/28/2023 17:43:11.200,0.84,0.273,0.051
4/28/2023 17:43:11.210,0.914,0.266,0.039
4/28/2023 17:43:11.220,0.996,0.254,0.02
4/28/2023 17:43:11.230,1.082,0.262,0
4/28/2023 17:43:11.240,1.168,0.27,-0.027
4/28/2023 17:43:11.250,1.242,0.289,-0.051
4/28/2023 17:43:11.260,1.281,0.313,-0.063
4/28/2023 17:43:11.270,1.285,0.324,-0.066
4/28/2023 17:43:11.280,1.309,0.324,-0.086
4/28/2023 17:43:11.290,1.391,0.336,-0.113
4/28/2023 17:43:11.300,1.492,0.375,-0.137
4/28/2023 17:43:11.310,1.527,0.418,-0.137
4/28/2023 17:43:11.320,1.457,0.465,-0.113
4/28/2023 17:43:11.330,1.301,0.531,-0.047
4/28/2023 17:43:11.340,1.125,0.586,0.078
4/28/2023 17:43:11.350,1.004,0.652,0.215
4/28/2023 17:43:11.360,0.941,0.688,0.277
4/28/2023 17:43:11.370,0.98,0.633,0.254
4/28/2023 17:43:11.380,1.113,0.539,0.188
4/28/2023 17:43:11.390,1.242,0.438,0.086
4/28/2023 17:43:11.400,1.316,0.363,0.012
4/28/2023 17:43:11.410,1.324,0.316,-0.012
4/28/2023 17:43:11.420,1.215,0.293,-0.004
4/28/2023 17:43:11.430,1.063,0.289,0.031
4/28/2023 17:43:11.440,0.918,0.273,0.098
4/28/2023 17:43:11.450,0.789,0.215,0.172
4/28/2023 17:43:11.460,0.691,0.18,0.223
4/28/2023 17:43:11.470,0.586,0.164,0.23
4/28/2023 17:43:11.480,0.496,0.16,0.219
4/28/2023 17:43:11.490,0.473,0.172,0.223
4/28/2023 17:43:11.500,0.473,0.16,0.227
4/28/2023 17:43:11.510,0.488,0.148,0.227
4/28/2023 17:43:11.520,0.5,0.172,0.211
4/28/2023 17:43:11.530,0.484,0.211,0.176
4/28/2023 17:43:11.540,0.477,0.277,0.141
4/28/2023 17:43:11.550,0.465,0.344,0.113
4/28/2023 17:43:11.560,0.473,0.387,0.094
4/28/2023 17:43:11.570,0.473,0.418,0.094
4/28/2023 17:43:11.580,0.492,0.457,0.098
4/28/2023 17:43:11.590,0.531,0.48,0.121
4/28/2023 17:43:11.600,0.582,0.473,0.148
4/28/2023 17:43:11.610,0.637,0.449,0.164
4/28/2023 17:43:11.620,0.691,0.426,0.172
4/28/2023 17:43:11.630,0.754,0.398,0.16
4/28/2023 17:43:11.640,0.824,0.383,0.129
4/28/2023 17:43:11.650,0.906,0.383,0.094
4/28/2023 17:43:11.660,0.977,0.379,0.055
4/28/2023 17:43:11.670,1.031,0.379,0.02
4/28/2023 17:43:11.680,1.086,0.395,-0.012
4/28/2023 17:43:11.690,1.148,0.426,-0.027
4/28/2023 17:43:11.700,1.215,0.465,-0.027
4/28/2023 17:43:11.710,1.258,0.504,-0.016
4/28/2023 17:43:11.720,1.254,0.531,-0.004
4/28/2023 17:43:11.730,1.215,0.531,-0.004
4/28/2023 17:43:11.740,1.207,0.531,-0.039
4/28/2023 17:43:11.750,1.297,0.563,-0.055
4/28/2023 17:43:11.760,1.43,0.625,-0.023
4/28/2023 17:43:11.770,1.5,0.703,0.031
4/28/2023 17:43:11.780,1.453,0.762,0.09
4/28/2023 17:43:11.790,1.316,0.793,0.129
4/28/2023 17:43:11.800,1.172,0.805,0.129
4/28/2023 17:43:11.810,1.078,0.777,0.098
4/28/2023 17:43:11.820,1.051,0.715,0.047
4/28/2023 17:43:11.830,1.105,0.621,-0.012
4/28/2023 17:43:11.840,1.191,0.508,-0.074
4/28/2023 17:43:11.850,1.262,0.395,-0.113
4/28/2023 17:43:11.860,1.316,0.336,-0.117
4/28/2023 17:43:11.870,1.32,0.328,-0.09
4/28/2023 17:43:11.880,1.273,0.348,-0.039
4/28/2023 17:43:11.890,1.191,0.363,0.016
4/28/2023 17:43:11.900,1.09,0.367,0.063
4/28/2023 17:43:11.910,0.988,0.336,0.098
4/28/2023 17:43:11.920,0.891,0.305,0.098
4/28/2023 17:43:11.930,0.766,0.289,0.02
4/28/2023 17:43:11.940,0.754,0.285,0.004
4/28/2023 17:43:11.950,0.707,0.281,0.059
4/28/2023 17:43:11.960,0.66,0.25,0.113
4/28/2023 17:43:11.970,0.633,0.23,0.133
4/28/2023 17:43:11.980,0.598,0.246,0.137
4/28/2023 17:43:11.990,0.547,0.277,0.141
4/28/2023 17:43:12.000,0.5,0.293,0.137
4/28/2023 17:43:12.010,0.488,0.277,0.137
4/28/2023 17:43:12.020,0.496,0.289,0.117
4/28/2023 17:43:12.030,0.516,0.313,0.105
4/28/2023 17:43:12.040,0.535,0.328,0.094
4/28/2023 17:43:12.050,0.543,0.328,0.078
4/28/2023 17:43:12.060,0.563,0.324,0.07
4/28/2023 17:43:12.070,0.613,0.305,0.063
4/28/2023 17:43:12.080,0.68,0.289,0.051
4/28/2023 17:43:12.090,0.73,0.277,0.039
4/28/2023 17:43:12.100,0.766,0.273,0.027
4/28/2023 17:43:12.110,0.797,0.262,0.016
4/28/2023 17:43:12.120,0.824,0.246,0.004
4/28/2023 17:43:12.130,0.859,0.238,-0.004
4/28/2023 17:43:12.140,0.926,0.234,-0.012
4/28/2023 17:43:12.150,1.008,0.254,-0.027
4/28/2023 17:43:12.160,1.105,0.277,-0.043
4/28/2023 17:43:12.170,1.211,0.293,-0.059
4/28/2023 17:43:12.180,1.285,0.309,-0.086
4/28/2023 17:43:12.190,1.313,0.32,-0.094
4/28/2023 17:43:12.200,1.281,0.32,-0.086
4/28/2023 17:43:12.210,1.242,0.301,-0.102
4/28/2023 17:43:12.220,1.293,0.301,-0.152
4/28/2023 17:43:12.230,1.406,0.344,-0.191
4/28/2023 17:43:12.240,1.473,0.379,-0.195
4/28/2023 17:43:12.250,1.434,0.406,-0.156
4/28/2023 17:43:12.260,1.301,0.457,-0.082
4/28/2023 17:43:12.270,1.145,0.535,0.027
4/28/2023 17:43:12.280,1.008,0.613,0.133
4/28/2023 17:43:12.290,0.918,0.645,0.172
4/28/2023 17:43:12.300,0.973,0.613,0.137
4/28/2023 17:43:12.310,1.141,0.539,0.063
4/28/2023 17:43:12.320,1.305,0.453,-0.02
4/28/2023 17:43:12.330,1.391,0.387,-0.074
4/28/2023 17:43:12.340,1.363,0.348,-0.086
4/28/2023 17:43:12.350,1.242,0.344,-0.047
4/28/2023 17:43:12.360,1.074,0.34,0.008
4/28/2023 17:43:12.370,0.926,0.336,0.09
4/28/2023 17:43:12.380,0.801,0.277,0.176
4/28/2023 17:43:12.390,0.691,0.191,0.227
4/28/2023 17:43:12.400,0.578,0.141,0.234
4/28/2023 17:43:12.410,0.508,0.117,0.219
4/28/2023 17:43:12.420,0.496,0.121,0.207
4/28/2023 17:43:12.430,0.508,0.098,0.215
4/28/2023 17:43:12.440,0.523,0.055,0.223
4/28/2023 17:43:12.450,0.527,0.055,0.215
4/28/2023 17:43:12.460,0.508,0.109,0.184
4/28/2023 17:43:12.470,0.477,0.195,0.145
4/28/2023 17:43:12.480,0.461,0.273,0.105
4/28/2023 17:43:12.490,0.469,0.355,0.078
4/28/2023 17:43:12.500,0.48,0.43,0.055
4/28/2023 17:43:12.510,0.535,0.48,0.059
4/28/2023 17:43:12.520,0.578,0.508,0.066
4/28/2023 17:43:12.530,0.625,0.516,0.086
4/28/2023 17:43:12.540,0.672,0.492,0.102
4/28/2023 17:43:12.550,0.715,0.457,0.102
4/28/2023 17:43:12.560,0.742,0.422,0.094
4/28/2023 17:43:12.570,0.762,0.379,0.082
4/28/2023 17:43:12.580,0.813,0.352,0.066
4/28/2023 17:43:12.590,0.898,0.348,0.047
4/28/2023 17:43:12.600,1,0.363,0.027
4/28/2023 17:43:12.610,1.113,0.379,0.012
4/28/2023 17:43:12.620,1.219,0.398,-0.004
4/28/2023 17:43:12.630,1.293,0.418,0
4/28/2023 17:43:12.640,1.324,0.449,0.02
4/28/2023 17:43:12.650,1.293,0.484,0.027
4/28/2023 17:43:12.660,1.238,0.52,0.039
4/28/2023 17:43:12.670,1.215,0.523,0.023
4/28/2023 17:43:12.680,1.289,0.535,0.004
4/28/2023 17:43:12.690,1.434,0.578,0.004
4/28/2023 17:43:12.700,1.539,0.641,0.039
4/28/2023 17:43:12.710,1.539,0.703,0.09
4/28/2023 17:43:12.720,1.422,0.746,0.133
4/28/2023 17:43:12.730,1.266,0.77,0.145
4/28/2023 17:43:12.740,1.152,0.77,0.129
4/28/2023 17:43:12.750,1.102,0.734,0.082
4/28/2023 17:43:12.760,1.102,0.672,0.031
4/28/2023 17:43:12.770,1.137,0.59,-0.035
4/28/2023 17:43:12.780,1.207,0.52,-0.09
4/28/2023 17:43:12.790,1.266,0.457,-0.121
4/28/2023 17:43:12.800,1.289,0.422,-0.125
4/28/2023 17:43:12.810,1.277,0.41,-0.098
4/28/2023 17:43:12.820,1.227,0.391,-0.043
4/28/2023 17:43:12.830,1.141,0.367,0.008
4/28/2023 17:43:12.840,1.047,0.34,0.055
4/28/2023 17:43:12.850,0.957,0.313,0.102
4/28/2023 17:43:12.860,0.832,0.297,0.113
4/28/2023 17:43:12.870,0.742,0.297,0.121
4/28/2023 17:43:12.880,0.688,0.301,0.121
4/28/2023 17:43:12.890,0.648,0.297,0.105
4/28/2023 17:43:12.900,0.629,0.305,0.082
4/28/2023 17:43:12.910,0.613,0.309,0.063
4/28/2023 17:43:12.920,0.578,0.316,0.035
4/28/2023 17:43:12.930,0.543,0.336,0.012
4/28/2023 17:43:12.940,0.52,0.359,0
4/28/2023 17:43:12.950,0.5,0.359,-0.004
4/28/2023 17:43:12.960,0.477,0.359,0.008
4/28/2023 17:43:12.970,0.477,0.344,0.035
4/28/2023 17:43:12.980,0.488,0.328,0.055
4/28/2023 17:43:12.990,0.516,0.297,0.07
4/28/2023 17:43:13.000,0.527,0.266,0.078
4/28/2023 17:43:13.010,0.555,0.246,0.078
4/28/2023 17:43:13.020,0.59,0.246,0.059
4/28/2023 17:43:13.030,0.621,0.242,0.039
4/28/2023 17:43:13.040,0.652,0.238,0.02
4/28/2023 17:43:13.050,0.684,0.234,0.004
4/28/2023 17:43:13.060,0.734,0.23,-0.012
4/28/2023 17:43:13.070,0.789,0.223,-0.035
4/28/2023 17:43:13.080,0.848,0.227,-0.066
4/28/2023 17:43:13.090,0.938,0.242,-0.094
4/28/2023 17:43:13.100,1.063,0.258,-0.105
4/28/2023 17:43:13.110,1.191,0.266,-0.117
4/28/2023 17:43:13.120,1.297,0.289,-0.117
4/28/2023 17:43:13.130,1.344,0.313,-0.102
4/28/2023 17:43:13.140,1.332,0.344,-0.07
4/28/2023 17:43:13.150,1.277,0.387,-0.012
4/28/2023 17:43:13.160,1.254,0.398,0.031
4/28/2023 17:43:13.170,1.348,0.418,0.016
4/28/2023 17:43:13.180,1.48,0.438,-0.02
4/28/2023 17:43:13.190,1.535,0.422,-0.051
4/28/2023 17:43:13.200,1.473,0.395,-0.07
4/28/2023 17:43:13.210,1.301,0.375,-0.066
4/28/2023 17:43:13.220,1.121,0.402,-0.035
4/28/2023 17:43:13.230,0.961,0.449,0.016
4/28/2023 17:43:13.240,0.844,0.453,0.07
4/28/2023 17:43:13.250,0.855,0.426,0.109
4/28/2023 17:43:13.260,1.016,0.367,0.102
4/28/2023 17:43:13.270,1.215,0.336,0.07
4/28/2023 17:43:13.280,1.352,0.316,0.035
4/28/2023 17:43:13.290,1.402,0.316,0.008
4/28/2023 17:43:13.300,1.32,0.32,0.02
4/28/2023 17:43:13.310,1.156,0.324,0.047
4/28/2023 17:43:13.320,1.004,0.34,0.094
4/28/2023 17:43:13.330,0.871,0.34,0.141
4/28/2023 17:43:13.340,0.746,0.289,0.184
4/28/2023 17:43:13.350,0.664,0.266,0.203
4/28/2023 17:43:13.360,0.605,0.262,0.203
4/28/2023 17:43:13.370,0.563,0.27,0.203
4/28/2023 17:43:13.380,0.563,0.266,0.223
4/28/2023 17:43:13.390,0.578,0.246,0.246
4/28/2023 17:43:13.400,0.57,0.227,0.242
4/28/2023 17:43:13.410,0.531,0.238,0.234
4/28/2023 17:43:13.420,0.496,0.273,0.219
4/28/2023 17:43:13.430,0.477,0.309,0.191
4/28/2023 17:43:13.440,0.48,0.359,0.152
4/28/2023 17:43:13.450,0.5,0.398,0.125
4/28/2023 17:43:13.460,0.516,0.387,0.121
4/28/2023 17:43:13.470,0.527,0.355,0.133
4/28/2023 17:43:13.480,0.547,0.348,0.152
4/28/2023 17:43:13.490,0.586,0.352,0.168
4/28/2023 17:43:13.500,0.621,0.355,0.172
4/28/2023 17:43:13.510,0.688,0.352,0.184
4/28/2023 17:43:13.520,0.758,0.355,0.164
4/28/2023 17:43:13.530,0.855,0.367,0.129
4/28/2023 17:43:13.540,0.973,0.375,0.078
4/28/2023 17:43:13.550,1.098,0.375,0.027
4/28/2023 17:43:13.560,1.207,0.379,-0.004
4/28/2023 17:43:13.570,1.293,0.383,-0.027
4/28/2023 17:43:13.580,1.355,0.402,-0.043
4/28/2023 17:43:13.590,1.379,0.438,-0.043
4/28/2023 17:43:13.600,1.391,0.48,-0.039
4/28/2023 17:43:13.610,1.379,0.523,-0.02
4/28/2023 17:43:13.620,1.352,0.559,-0.008
4/28/2023 17:43:13.630,1.344,0.563,-0.02
4/28/2023 17:43:13.640,1.422,0.59,-0.031
4/28/2023 17:43:13.650,1.504,0.637,-0.023
4/28/2023 17:43:13.660,1.484,0.664,0.016
4/28/2023 17:43:13.670,1.355,0.684,0.07
4/28/2023 17:43:13.680,1.211,0.699,0.113
4/28/2023 17:43:13.690,1.109,0.715,0.133
4/28/2023 17:43:13.700,1.059,0.695,0.125
4/28/2023 17:43:13.710,1.078,0.648,0.086
4/28/2023 17:43:13.720,1.156,0.574,0.031
4/28/2023 17:43:13.730,1.242,0.48,-0.043
4/28/2023 17:43:13.740,1.324,0.41,-0.102
4/28/2023 17:43:13.750,1.375,0.363,-0.133
4/28/2023 17:43:13.760,1.355,0.336,-0.129
4/28/2023 17:43:13.770,1.281,0.328,-0.102
4/28/2023 17:43:13.780,1.188,0.316,-0.059
4/28/2023 17:43:13.790,1.09,0.313,-0.016
4/28/2023 17:43:13.800,0.969,0.305,-0.016
4/28/2023 17:43:13.810,0.867,0.293,-0.02
4/28/2023 17:43:13.820,0.816,0.285,0.039
4/28/2023 17:43:13.830,0.75,0.273,0.105
4/28/2023 17:43:13.840,0.699,0.242,0.129
4/28/2023 17:43:13.850,0.668,0.23,0.125
4/28/2023 17:43:13.860,0.625,0.246,0.113
4/28/2023 17:43:13.870,0.586,0.262,0.098
4/28/2023 17:43:13.880,0.57,0.258,0.082
4/28/2023 17:43:13.890,0.563,0.266,0.059
4/28/2023 17:43:13.900,0.555,0.289,0.047
4/28/2023 17:43:13.910,0.555,0.301,0.047
4/28/2023 17:43:13.920,0.543,0.313,0.043
4/28/2023 17:43:13.930,0.535,0.32,0.035
4/28/2023 17:43:13.940,0.551,0.313,0.031
4/28/2023 17:43:13.950,0.578,0.285,0.031
4/28/2023 17:43:13.960,0.605,0.27,0.02
4/28/2023 17:43:13.970,0.641,0.254,0.016
4/28/2023 17:43:13.980,0.672,0.238,0.012
4/28/2023 17:43:13.990,0.703,0.23,0.016
4/28/2023 17:43:14.000,0.734,0.23,0.004
4/28/2023 17:43:14.010,0.762,0.227,0.004
4/28/2023 17:43:14.020,0.777,0.219,0
4/28/2023 17:43:14.030,0.793,0.215,-0.004
4/28/2023 17:43:14.040,0.828,0.215,-0.012
4/28/2023 17:43:14.050,0.902,0.23,-0.031
4/28/2023 17:43:14.060,1.012,0.238,-0.051
4/28/2023 17:43:14.070,1.145,0.254,-0.07
4/28/2023 17:43:14.080,1.258,0.281,-0.086
4/28/2023 17:43:14.090,1.309,0.305,-0.074
4/28/2023 17:43:14.100,1.293,0.344,-0.031
4/28/2023 17:43:14.110,1.238,0.348,0.016
4/28/2023 17:43:14.120,1.258,0.344,0
4/28/2023 17:43:14.130,1.359,0.367,-0.043
4/28/2023 17:43:14.140,1.445,0.379,-0.086
4/28/2023 17:43:14.150,1.438,0.359,-0.109
4/28/2023 17:43:14.160,1.367,0.395,-0.121
4/28/2023 17:43:14.170,1.223,0.434,-0.105
4/28/2023 17:43:14.180,1.07,0.449,-0.066
4/28/2023 17:43:14.190,0.977,0.473,-0.008
4/28/2023 17:43:14.200,0.965,0.484,0.039
4/28/2023 17:43:14.210,1.063,0.473,0.055
4/28/2023 17:43:14.220,1.242,0.461,0.039
4/28/2023 17:43:14.230,1.367,0.445,0.02
4/28/2023 17:43:14.240,1.395,0.426,0.004
4/28/2023 17:43:14.250,1.34,0.422,0.016
4/28/2023 17:43:14.260,1.184,0.391,0.039
4/28/2023 17:43:14.270,1.039,0.383,0.078
4/28/2023 17:43:14.280,0.93,0.379,0.117
4/28/2023 17:43:14.290,0.828,0.332,0.156
4/28/2023 17:43:14.300,0.727,0.258,0.184
4/28/2023 17:43:14.310,0.633,0.199,0.199
4/28/2023 17:43:14.320,0.57,0.172,0.199
4/28/2023 17:43:14.330,0.531,0.188,0.199
4/28/2023 17:43:14.340,0.52,0.207,0.207
4/28/2023 17:43:14.350,0.508,0.207,0.211
4/28/2023 17:43:14.360,0.48,0.199,0.203
4/28/2023 17:43:14.370,0.441,0.211,0.184
4/28/2023 17:43:14.380,0.414,0.238,0.168
4/28/2023 17:43:14.390,0.395,0.27,0.164
4/28/2023 17:43:14.400,0.391,0.305,0.156
4/28/2023 17:43:14.410,0.418,0.332,0.164
4/28/2023 17:43:14.420,0.48,0.344,0.172
4/28/2023 17:43:14.430,0.559,0.355,0.18
4/28/2023 17:43:14.440,0.645,0.348,0.191
4/28/2023 17:43:14.450,0.723,0.348,0.195
4/28/2023 17:43:14.460,0.793,0.363,0.184
4/28/2023 17:43:14.470,0.852,0.363,0.16
4/28/2023 17:43:14.480,0.902,0.363,0.125
4/28/2023 17:43:14.490,0.949,0.352,0.074
4/28/2023 17:43:14.500,1.016,0.352,0.02
4/28/2023 17:43:14.510,1.121,0.371,-0.027
4/28/2023 17:43:14.520,1.223,0.398,-0.066
4/28/2023 17:43:14.530,1.316,0.426,-0.078
4/28/2023 17:43:14.540,1.371,0.449,-0.074
4/28/2023 17:43:14.550,1.395,0.469,-0.07
4/28/2023 17:43:14.560,1.434,0.492,-0.063
4/28/2023 17:43:14.570,1.523,0.539,-0.039
4/28/2023 17:43:14.580,1.648,0.602,-0.016
4/28/2023 17:43:14.590,1.746,0.664,0.012
4/28/2023 17:43:14.600,1.738,0.703,0.023
4/28/2023 17:43:14.610,1.629,0.723,0.027
4/28/2023 17:43:14.620,1.477,0.711,0.02
4/28/2023 17:43:14.630,1.328,0.68,0.023
4/28/2023 17:43:14.640,1.195,0.621,0.027
4/28/2023 17:43:14.650,1.105,0.543,0.031
4/28/2023 17:43:14.660,1.086,0.473,0.035
4/28/2023 17:43:14.670,1.113,0.418,0.043
4/28/2023 17:43:14.680,1.164,0.359,0.035
4/28/2023 17:43:14.690,1.188,0.313,0.035
4/28/2023 17:43:14.700,1.148,0.297,0.016
4/28/2023 17:43:14.710,1.063,0.305,0
4/28/2023 17:43:14.720,0.98,0.32,-0.004
4/28/2023 17:43:14.730,0.906,0.336,0
4/28/2023 17:43:14.740,0.828,0.344,0
4/28/2023 17:43:14.750,0.723,0.352,-0.055
4/28/2023 17:43:14.760,0.715,0.34,-0.059
4/28/2023 17:43:14.770,0.742,0.332,0.004
4/28/2023 17:43:14.780,0.715,0.32,0.066
4/28/2023 17:43:14.790,0.68,0.273,0.09
4/28/2023 17:43:14.800,0.648,0.258,0.086
4/28/2023 17:43:14.810,0.602,0.273,0.098
4/28/2023 17:43:14.820,0.578,0.277,0.113
4/28/2023 17:43:14.830,0.559,0.254,0.121
4/28/2023 17:43:14.840,0.539,0.238,0.117
4/28/2023 17:43:14.850,0.527,0.254,0.105
4/28/2023 17:43:14.860,0.52,0.266,0.082
4/28/2023 17:43:14.870,0.527,0.27,0.047
4/28/2023 17:43:14.880,0.547,0.27,0.023
4/28/2023 17:43:14.890,0.566,0.27,0
4/28/2023 17:43:14.900,0.594,0.273,-0.008
4/28/2023 17:43:14.910,0.629,0.281,-0.008
4/28/2023 17:43:14.920,0.668,0.289,0
4/28/2023 17:43:14.930,0.699,0.289,0.008
4/28/2023 17:43:14.940,0.73,0.289,0.008
4/28/2023 17:43:14.950,0.75,0.293,0.016
4/28/2023 17:43:14.960,0.762,0.285,0.027
4/28/2023 17:43:14.970,0.805,0.277,0.027
4/28/2023 17:43:14.980,0.879,0.273,0.02
4/28/2023 17:43:14.990,0.977,0.262,0.008
4/28/2023 17:43:15.000,1.066,0.238,-0.023
4/28/2023 17:43:15.010,1.164,0.23,-0.043
4/28/2023 17:43:15.020,1.234,0.234,-0.059
4/28/2023 17:43:15.030,1.285,0.25,-0.066
4/28/2023 17:43:15.040,1.281,0.266,-0.066
4/28/2023 17:43:15.050,1.262,0.254,-0.098
4/28/2023 17:43:15.060,1.316,0.262,-0.156
4/28/2023 17:43:15.070,1.445,0.301,-0.207
4/28/2023 17:43:15.080,1.543,0.336,-0.215
4/28/2023 17:43:15.090,1.523,0.355,-0.176
4/28/2023 17:43:15.100,1.391,0.375,-0.105
4/28/2023 17:43:15.110,1.219,0.453,-0.008
4/28/2023 17:43:15.120,1.055,0.531,0.098
4/28/2023 17:43:15.130,0.969,0.578,0.129
4/28/2023 17:43:15.140,0.992,0.578,0.102
4/28/2023 17:43:15.150,1.145,0.5,0.051
4/28/2023 17:43:15.160,1.32,0.406,-0.012
4/28/2023 17:43:15.170,1.418,0.34,-0.059
4/28/2023 17:43:15.180,1.422,0.301,-0.082
4/28/2023 17:43:15.190,1.293,0.266,-0.063
4/28/2023 17:43:15.200,1.109,0.234,-0.031
4/28/2023 17:43:15.210,0.949,0.234,0.012
4/28/2023 17:43:15.220,0.836,0.254,0.07
4/28/2023 17:43:15.230,0.75,0.238,0.117
4/28/2023 17:43:15.240,0.691,0.211,0.148
4/28/2023 17:43:15.250,0.633,0.211,0.148
4/28/2023 17:43:15.260,0.59,0.242,0.145
4/28/2023 17:43:15.270,0.551,0.242,0.152
4/28/2023 17:43:15.280,0.52,0.215,0.164
4/28/2023 17:43:15.290,0.496,0.191,0.184
4/28/2023 17:43:15.300,0.48,0.188,0.18
4/28/2023 17:43:15.310,0.469,0.23,0.152
4/28/2023 17:43:15.320,0.492,0.305,0.133
4/28/2023 17:43:15.330,0.516,0.348,0.129
4/28/2023 17:43:15.340,0.535,0.344,0.129
4/28/2023 17:43:15.350,0.551,0.336,0.148
4/28/2023 17:43:15.360,0.563,0.336,0.16
4/28/2023 17:43:15.370,0.582,0.336,0.168
4/28/2023 17:43:15.380,0.617,0.34,0.172
4/28/2023 17:43:15.390,0.668,0.344,0.176
4/28/2023 17:43:15.400,0.73,0.352,0.176
4/28/2023 17:43:15.410,0.801,0.371,0.168
4/28/2023 17:43:15.420,0.875,0.379,0.145
4/28/2023 17:43:15.430,0.941,0.375,0.105
4/28/2023 17:43:15.440,1.016,0.367,0.066
4/28/2023 17:43:15.450,1.086,0.352,0.027
4/28/2023 17:43:15.460,1.164,0.363,0.004
4/28/2023 17:43:15.470,1.238,0.387,-0.012
4/28/2023 17:43:15.480,1.301,0.422,-0.008
4/28/2023 17:43:15.490,1.34,0.457,-0.008
4/28/2023 17:43:15.500,1.324,0.477,-0.008
4/28/2023 17:43:15.510,1.301,0.473,-0.027
4/28/2023 17:43:15.520,1.316,0.461,-0.063
4/28/2023 17:43:15.530,1.453,0.516,-0.047
4/28/2023 17:43:15.540,1.629,0.609,0
4/28/2023 17:43:15.550,1.68,0.688,0.074
4/28/2023 17:43:15.560,1.566,0.73,0.125
4/28/2023 17:43:15.570,1.371,0.73,0.133
4/28/2023 17:43:15.580,1.207,0.695,0.098
4/28/2023 17:43:15.590,1.125,0.625,0.047
4/28/2023 17:43:15.600,1.105,0.543,-0.008
4/28/2023 17:43:15.610,1.133,0.469,-0.059
4/28/2023 17:43:15.620,1.211,0.379,-0.09
4/28/2023 17:43:15.630,1.281,0.309,-0.094
4/28/2023 17:43:15.640,1.313,0.297,-0.078
4/28/2023 17:43:15.650,1.27,0.316,-0.055
4/28/2023 17:43:15.660,1.184,0.344,-0.039
4/28/2023 17:43:15.670,1.078,0.371,-0.027
4/28/2023 17:43:15.680,0.98,0.379,-0.023
4/28/2023 17:43:15.690,0.891,0.379,-0.02
4/28/2023 17:43:15.700,0.801,0.359,-0.012
4/28/2023 17:43:15.710,0.73,0.348,-0.008
4/28/2023 17:43:15.720,0.672,0.344,0
4/28/2023 17:43:15.730,0.645,0.34,0.012
4/28/2023 17:43:15.740,0.621,0.34,0.02
4/28/2023 17:43:15.750,0.594,0.336,0.043
4/28/2023 17:43:15.760,0.57,0.324,0.051
4/28/2023 17:43:15.770,0.543,0.313,0.047
4/28/2023 17:43:15.780,0.512,0.297,0.047
4/28/2023 17:43:15.790,0.492,0.273,0.047
4/28/2023 17:43:15.800,0.48,0.25,0.047
4/28/2023 17:43:15.810,0.484,0.242,0.047
4/28/2023 17:43:15.820,0.496,0.242,0.043
4/28/2023 17:43:15.830,0.516,0.246,0.035
4/28/2023 17:43:15.840,0.563,0.246,0.035
4/28/2023 17:43:15.850,0.617,0.254,0.035
4/28/2023 17:43:15.860,0.664,0.266,0.031
4/28/2023 17:43:15.870,0.707,0.27,0.02
4/28/2023 17:43:15.880,0.75,0.277,0.008
4/28/2023 17:43:15.890,0.785,0.277,0.004
4/28/2023 17:43:15.900,0.836,0.277,0
4/28/2023 17:43:15.910,0.898,0.266,0
4/28/2023 17:43:15.920,0.977,0.25,-0.004
4/28/2023 17:43:15.930,1.063,0.234,-0.027
4/28/2023 17:43:15.940,1.16,0.23,-0.059
4/28/2023 17:43:15.950,1.258,0.227,-0.078
4/28/2023 17:43:15.960,1.332,0.23,-0.098
4/28/2023 17:43:15.970,1.363,0.25,-0.09
4/28/2023 17:43:15.980,1.344,0.266,-0.074
4/28/2023 17:43:15.990,1.254,0.27,-0.055
4/28/2023 17:43:16.000,1.172,0.238,-0.078
4/28/2023 17:43:16.010,1.246,0.227,-0.137
4/28/2023 17:43:16.020,1.41,0.266,-0.188
4/28/2023 17:43:16.030,1.516,0.309,-0.203
4/28/2023 17:43:16.040,1.492,0.34,-0.176
4/28/2023 17:43:16.050,1.352,0.371,-0.125
4/28/2023 17:43:16.060,1.152,0.418,-0.055
4/28/2023 17:43:16.070,0.98,0.453,0.008
4/28/2023 17:43:16.080,0.895,0.473,0.039
4/28/2023 17:43:16.090,0.926,0.457,0.023
4/28/2023 17:43:16.100,1.063,0.387,-0.016
4/28/2023 17:43:16.110,1.234,0.328,-0.047
4/28/2023 17:43:16.120,1.355,0.309,-0.059
4/28/2023 17:43:16.130,1.375,0.293,-0.047
4/28/2023 17:43:16.140,1.254,0.277,-0.027
4/28/2023 17:43:16.150,1.074,0.266,-0.008
4/28/2023 17:43:16.160,0.906,0.25,0.016
4/28/2023 17:43:16.170,0.777,0.25,0.047
4/28/2023 17:43:16.180,0.715,0.25,0.082
4/28/2023 17:43:16.190,0.66,0.242,0.098
4/28/2023 17:43:16.200,0.629,0.27,0.113
4/28/2023 17:43:16.210,0.625,0.301,0.117
4/28/2023 17:43:16.220,0.609,0.316,0.121
4/28/2023 17:43:16.230,0.586,0.301,0.121
4/28/2023 17:43:16.240,0.57,0.285,0.125
4/28/2023 17:43:16.250,0.555,0.277,0.125
4/28/2023 17:43:16.260,0.555,0.273,0.125
4/28/2023 17:43:16.270,0.539,0.285,0.113
4/28/2023 17:43:16.280,0.523,0.301,0.109
4/28/2023 17:43:16.290,0.52,0.309,0.121
4/28/2023 17:43:16.300,0.531,0.301,0.133
4/28/2023 17:43:16.310,0.574,0.305,0.156
4/28/2023 17:43:16.320,0.633,0.32,0.176
4/28/2023 17:43:16.330,0.699,0.34,0.18
4/28/2023 17:43:16.340,0.754,0.359,0.176
4/28/2023 17:43:16.350,0.793,0.371,0.168
4/28/2023 17:43:16.360,0.805,0.371,0.148
4/28/2023 17:43:16.370,0.813,0.352,0.117
4/28/2023 17:43:16.380,0.832,0.336,0.078
4/28/2023 17:43:16.390,0.883,0.332,0.047
4/28/2023 17:43:16.400,0.984,0.355,0.02
4/28/2023 17:43:16.410,1.109,0.387,0
4/28/2023 17:43:16.420,1.238,0.41,-0.004
4/28/2023 17:43:16.430,1.328,0.441,0.016
4/28/2023 17:43:16.440,1.344,0.461,0.035
4/28/2023 17:43:16.450,1.289,0.473,0.039
4/28/2023 17:43:16.460,1.203,0.484,0.016
4/28/2023 17:43:16.470,1.203,0.48,-0.027
4/28/2023 17:43:16.480,1.336,0.508,-0.043
4/28/2023 17:43:16.490,1.512,0.578,-0.012
4/28/2023 17:43:16.500,1.57,0.648,0.039
4/28/2023 17:43:16.510,1.496,0.707,0.086
4/28/2023 17:43:16.520,1.332,0.734,0.098
4/28/2023 17:43:16.530,1.184,0.715,0.059
4/28/2023 17:43:16.540,1.129,0.672,-0.004
4/28/2023 17:43:16.550,1.168,0.602,-0.074
4/28/2023 17:43:16.560,1.262,0.512,-0.148
4/28/2023 17:43:16.570,1.348,0.418,-0.191
4/28/2023 17:43:16.580,1.379,0.34,-0.199
4/28/2023 17:43:16.590,1.359,0.316,-0.18
4/28/2023 17:43:16.600,1.301,0.32,-0.125
4/28/2023 17:43:16.610,1.219,0.336,-0.078
4/28/2023 17:43:16.620,1.145,0.355,-0.035
4/28/2023 17:43:16.630,1.07,0.367,0
4/28/2023 17:43:16.640,0.984,0.359,0.02
4/28/2023 17:43:16.650,0.895,0.359,0.031
4/28/2023 17:43:16.660,0.813,0.367,0.031
4/28/2023 17:43:16.670,0.738,0.375,0.035
4/28/2023 17:43:16.680,0.691,0.375,0.039
4/28/2023 17:43:16.690,0.656,0.375,0.043
4/28/2023 17:43:16.700,0.625,0.367,0.039
4/28/2023 17:43:16.710,0.598,0.367,0.035
4/28/2023 17:43:16.720,0.59,0.363,0.031
4/28/2023 17:43:16.730,0.582,0.344,0.027
4/28/2023 17:43:16.740,0.574,0.316,0.031
4/28/2023 17:43:16.750,0.566,0.281,0.027
4/28/2023 17:43:16.760,0.563,0.266,0.023
4/28/2023 17:43:16.770,0.563,0.25,0.023
4/28/2023 17:43:16.780,0.563,0.238,0.02
4/28/2023 17:43:16.790,0.582,0.234,0.023
4/28/2023 17:43:16.800,0.609,0.23,0.027
4/28/2023 17:43:16.810,0.648,0.23,0.031
4/28/2023 17:43:16.820,0.703,0.242,0.027
4/28/2023 17:43:16.830,0.77,0.246,0.016
4/28/2023 17:43:16.840,0.82,0.242,0.004
4/28/2023 17:43:16.850,0.867,0.246,-0.008
4/28/2023 17:43:16.860,0.906,0.246,-0.012
4/28/2023 17:43:16.870,0.934,0.238,-0.02
4/28/2023 17:43:16.880,0.984,0.238,-0.031
4/28/2023 17:43:16.890,1.063,0.223,-0.035
4/28/2023 17:43:16.900,1.16,0.227,-0.047
4/28/2023 17:43:16.910,1.266,0.238,-0.066
4/28/2023 17:43:16.920,1.324,0.254,-0.098
4/28/2023 17:43:16.930,1.332,0.25,-0.117
4/28/2023 17:43:16.940,1.324,0.238,-0.148
4/28/2023 17:43:16.950,1.367,0.242,-0.199
4/28/2023 17:43:16.960,1.461,0.258,-0.266
4/28/2023 17:43:16.970,1.516,0.273,-0.301
4/28/2023 17:43:16.980,1.469,0.297,-0.281
4/28/2023 17:43:16.990,1.34,0.336,-0.211
4/28/2023 17:43:17.000,1.16,0.398,-0.09
4/28/2023 17:43:17.010,1.023,0.473,0.055
4/28/2023 17:43:17.020,0.953,0.555,0.156
4/28/2023 17:43:17.030,0.996,0.602,0.172
4/28/2023 17:43:17.040,1.121,0.582,0.137
4/28/2023 17:43:17.050,1.262,0.512,0.082
4/28/2023 17:43:17.060,1.34,0.441,0.016
4/28/2023 17:43:17.070,1.316,0.367,-0.035
4/28/2023 17:43:17.080,1.207,0.305,-0.059
4/28/2023 17:43:17.090,1.063,0.254,-0.035
4/28/2023 17:43:17.100,0.926,0.207,0.012
4/28/2023 17:43:17.110,0.816,0.168,0.07
4/28/2023 17:43:17.120,0.73,0.145,0.137
4/28/2023 17:43:17.130,0.668,0.148,0.184
4/28/2023 17:43:17.140,0.609,0.172,0.211
4/28/2023 17:43:17.150,0.57,0.207,0.215
4/28/2023 17:43:17.160,0.551,0.234,0.211
4/28/2023 17:43:17.170,0.535,0.23,0.191
4/28/2023 17:43:17.180,0.508,0.215,0.168
4/28/2023 17:43:17.190,0.48,0.215,0.145
4/28/2023 17:43:17.200,0.465,0.242,0.121
4/28/2023 17:43:17.210,0.441,0.273,0.105
4/28/2023 17:43:17.220,0.441,0.305,0.105
4/28/2023 17:43:17.230,0.457,0.324,0.125
4/28/2023 17:43:17.240,0.477,0.336,0.148
4/28/2023 17:43:17.250,0.516,0.355,0.18
4/28/2023 17:43:17.260,0.551,0.363,0.203
4/28/2023 17:43:17.270,0.594,0.355,0.211
4/28/2023 17:43:17.280,0.633,0.352,0.211
4/28/2023 17:43:17.290,0.668,0.355,0.203
4/28/2023 17:43:17.300,0.715,0.363,0.191
4/28/2023 17:43:17.310,0.789,0.383,0.176
4/28/2023 17:43:17.320,0.879,0.395,0.152
4/28/2023 17:43:17.330,0.98,0.398,0.125
4/28/2023 17:43:17.340,1.086,0.406,0.098
4/28/2023 17:43:17.350,1.176,0.414,0.078
4/28/2023 17:43:17.360,1.246,0.426,0.07
4/28/2023 17:43:17.370,1.277,0.449,0.063
4/28/2023 17:43:17.380,1.293,0.477,0.059
4/28/2023 17:43:17.390,1.309,0.512,0.059
4/28/2023 17:43:17.400,1.324,0.543,0.059
4/28/2023 17:43:17.410,1.336,0.547,0.047
4/28/2023 17:43:17.420,1.395,0.559,0.023
4/28/2023 17:43:17.430,1.492,0.586,0.023
4/28/2023 17:43:17.440,1.566,0.621,0.051
4/28/2023 17:43:17.450,1.547,0.66,0.082
4/28/2023 17:43:17.460,1.426,0.688,0.117
4/28/2023 17:43:17.470,1.277,0.691,0.137
4/28/2023 17:43:17.480,1.168,0.676,0.137
4/28/2023 17:43:17.490,1.105,0.637,0.117
4/28/2023 17:43:17.500,1.086,0.59,0.086
4/28/2023 17:43:17.510,1.133,0.527,0.043
4/28/2023 17:43:17.520,1.207,0.461,-0.012
4/28/2023 17:43:17.530,1.273,0.418,-0.047
4/28/2023 17:43:17.540,1.301,0.391,-0.051
4/28/2023 17:43:17.550,1.262,0.367,-0.047
4/28/2023 17:43:17.560,1.172,0.344,-0.027
4/28/2023 17:43:17.570,1.078,0.332,0
4/28/2023 17:43:17.580,0.984,0.316,0.031
4/28/2023 17:43:17.590,0.887,0.316,0.051
4/28/2023 17:43:17.600,0.793,0.313,0.07
4/28/2023 17:43:17.610,0.703,0.309,0.082
4/28/2023 17:43:17.620,0.629,0.297,0.094
4/28/2023 17:43:17.630,0.574,0.305,0.102
4/28/2023 17:43:17.640,0.543,0.313,0.102
4/28/2023 17:43:17.650,0.516,0.32,0.094
4/28/2023 17:43:17.660,0.496,0.324,0.078
4/28/2023 17:43:17.670,0.48,0.328,0.07
4/28/2023 17:43:17.680,0.48,0.324,0.066
4/28/2023 17:43:17.690,0.488,0.309,0.066
4/28/2023 17:43:17.700,0.496,0.277,0.07
4/28/2023 17:43:17.710,0.512,0.242,0.066
4/28/2023 17:43:17.720,0.523,0.238,0.063
4/28/2023 17:43:17.730,0.543,0.238,0.059
4/28/2023 17:43:17.740,0.566,0.238,0.063
4/28/2023 17:43:17.750,0.598,0.234,0.059
4/28/2023 17:43:17.760,0.641,0.23,0.055
4/28/2023 17:43:17.770,0.688,0.242,0.051
4/28/2023 17:43:17.780,0.738,0.262,0.039
4/28/2023 17:43:17.790,0.801,0.281,0.035
4/28/2023 17:43:17.800,0.883,0.289,0.016
4/28/2023 17:43:17.810,0.969,0.27,-0.004
4/28/2023 17:43:17.820,1.055,0.246,-0.031
4/28/2023 17:43:17.830,1.125,0.234,-0.059
4/28/2023 17:43:17.840,1.199,0.238,-0.086
4/28/2023 17:43:17.850,1.293,0.273,-0.105
4/28/2023 17:43:17.860,1.379,0.301,-0.098
4/28/2023 17:43:17.870,1.422,0.32,-0.066
4/28/2023 17:43:17.880,1.391,0.332,-0.016
4/28/2023 17:43:17.890,1.313,0.316,0.031
4/28/2023 17:43:17.900,1.309,0.305,0.012
4/28/2023 17:43:17.910,1.395,0.32,-0.051
4/28/2023 17:43:17.920,1.457,0.348,-0.09
4/28/2023 17:43:17.930,1.422,0.355,-0.094
4/28/2023 17:43:17.940,1.277,0.359,-0.078
4/28/2023 17:43:17.950,1.102,0.383,-0.047
4/28/2023 17:43:17.960,0.965,0.414,0.004
4/28/2023 17:43:17.970,0.906,0.441,0.063
4/28/2023 17:43:17.980,0.926,0.461,0.113
4/28/2023 17:43:17.990,1.02,0.473,0.129
4/28/2023 17:43:18.000,1.129,0.477,0.109
4/28/2023 17:43:18.010,1.246,0.449,0.078
4/28/2023 17:43:18.020,1.305,0.418,0.051
4/28/2023 17:43:18.030,1.273,0.367,0.023
4/28/2023 17:43:18.040,1.148,0.313,0.02
4/28/2023 17:43:18.050,1,0.266,0.027
4/28/2023 17:43:18.060,0.879,0.238,0.063
4/28/2023 17:43:18.070,0.789,0.211,0.125
4/28/2023 17:43:18.080,0.719,0.184,0.184
4/28/2023 17:43:18.090,0.668,0.184,0.215
4/28/2023 17:43:18.100,0.637,0.215,0.215
4/28/2023 17:43:18.110,0.605,0.258,0.207
4/28/2023 17:43:18.120,0.566,0.262,0.191
4/28/2023 17:43:18.130,0.535,0.234,0.172
4/28/2023 17:43:18.140,0.496,0.215,0.145
4/28/2023 17:43:18.150,0.465,0.223,0.129
4/28/2023 17:43:18.160,0.445,0.25,0.117
4/28/2023 17:43:18.170,0.449,0.273,0.121
4/28/2023 17:43:18.180,0.469,0.301,0.137
4/28/2023 17:43:18.190,0.508,0.332,0.16
4/28/2023 17:43:18.200,0.563,0.367,0.188
4/28/2023 17:43:18.210,0.617,0.391,0.203
4/28/2023 17:43:18.220,0.656,0.395,0.207
4/28/2023 17:43:18.230,0.691,0.387,0.188
4/28/2023 17:43:18.240,0.742,0.391,0.168
4/28/2023 17:43:18.250,0.813,0.387,0.141
4/28/2023 17:43:18.260,0.902,0.379,0.117
4/28/2023 17:43:18.270,0.996,0.359,0.09
4/28/2023 17:43:18.280,1.086,0.348,0.066
4/28/2023 17:43:18.290,1.172,0.355,0.055
4/28/2023 17:43:18.300,1.25,0.367,0.043
4/28/2023 17:43:18.310,1.305,0.387,0.027
4/28/2023 17:43:18.320,1.34,0.422,0.027
4/28/2023 17:43:18.330,1.348,0.457,0.031
4/28/2023 17:43:18.340,1.309,0.473,0.023
4/28/2023 17:43:18.350,1.285,0.477,-0.004
4/28/2023 17:43:18.360,1.375,0.512,-0.035
4/28/2023 17:43:18.370,1.531,0.59,-0.02
4/28/2023 17:43:18.380,1.617,0.668,0.027
4/28/2023 17:43:18.390,1.551,0.711,0.078
4/28/2023 17:43:18.400,1.379,0.723,0.102
4/28/2023 17:43:18.410,1.211,0.715,0.098
4/28/2023 17:43:18.420,1.121,0.688,0.086
4/28/2023 17:43:18.430,1.082,0.641,0.07
4/28/2023 17:43:18.440,1.082,0.582,0.031
4/28/2023 17:43:18.450,1.141,0.52,-0.008
4/28/2023 17:43:18.460,1.234,0.453,-0.031
4/28/2023 17:43:18.470,1.301,0.383,-0.039
4/28/2023 17:43:18.480,1.309,0.332,-0.035
4/28/2023 17:43:18.490,1.23,0.305,-0.027
4/28/2023 17:43:18.500,1.113,0.289,-0.012
4/28/2023 17:43:18.510,1.023,0.285,0.008
4/28/2023 17:43:18.520,0.934,0.277,0.031
4/28/2023 17:43:18.530,0.848,0.273,0.055
4/28/2023 17:43:18.540,0.77,0.285,0.082
4/28/2023 17:43:18.550,0.699,0.285,0.102
4/28/2023 17:43:18.560,0.633,0.285,0.113
4/28/2023 17:43:18.570,0.598,0.297,0.117
4/28/2023 17:43:18.580,0.57,0.309,0.094
4/28/2023 17:43:18.590,0.535,0.309,0.078
4/28/2023 17:43:18.600,0.504,0.297,0.055
4/28/2023 17:43:18.610,0.48,0.281,0.039
4/28/2023 17:43:18.620,0.461,0.273,0.031
4/28/2023 17:43:18.630,0.461,0.27,0.027
4/28/2023 17:43:18.640,0.477,0.262,0.035
4/28/2023 17:43:18.650,0.492,0.254,0.047
4/28/2023 17:43:18.660,0.516,0.246,0.059
4/28/2023 17:43:18.670,0.551,0.242,0.059
4/28/2023 17:43:18.680,0.598,0.254,0.059
4/28/2023 17:43:18.690,0.672,0.258,0.059
4/28/2023 17:43:18.700,0.762,0.266,0.051
4/28/2023 17:43:18.710,0.844,0.27,0.039
4/28/2023 17:43:18.720,0.895,0.25,0.023
4/28/2023 17:43:18.730,0.926,0.215,0.016
4/28/2023 17:43:18.740,0.949,0.195,0.008
4/28/2023 17:43:18.750,0.992,0.211,-0.004
4/28/2023 17:43:18.760,1.074,0.242,-0.008
4/28/2023 17:43:18.770,1.191,0.266,-0.016
4/28/2023 17:43:18.780,1.313,0.277,-0.035
4/28/2023 17:43:18.790,1.418,0.293,-0.055
4/28/2023 17:43:18.800,1.477,0.281,-0.074
4/28/2023 17:43:18.810,1.449,0.262,-0.07
4/28/2023 17:43:18.820,1.355,0.25,-0.047
4/28/2023 17:43:18.830,1.281,0.234,-0.066
4/28/2023 17:43:18.840,1.332,0.258,-0.109
4/28/2023 17:43:18.850,1.43,0.293,-0.121
4/28/2023 17:43:18.860,1.445,0.313,-0.109
4/28/2023 17:43:18.870,1.34,0.324,-0.09
4/28/2023 17:43:18.880,1.188,0.352,-0.055
4/28/2023 17:43:18.890,1.066,0.391,-0.008
4/28/2023 17:43:18.900,0.992,0.43,0.043
4/28/2023 17:43:18.910,0.969,0.445,0.07
4/28/2023 17:43:18.920,1.004,0.43,0.066
4/28/2023 17:43:18.930,1.078,0.406,0.035
4/28/2023 17:43:18.940,1.148,0.383,0.012
4/28/2023 17:43:18.950,1.184,0.359,-0.004
4/28/2023 17:43:18.960,1.148,0.336,-0.004
4/28/2023 17:43:18.970,1.047,0.305,0.012
4/28/2023 17:43:18.980,0.922,0.277,0.039
4/28/2023 17:43:18.990,0.809,0.258,0.078
4/28/2023 17:43:19.000,0.719,0.262,0.125
4/28/2023 17:43:19.010,0.645,0.242,0.156
4/28/2023 17:43:19.020,0.582,0.234,0.176
4/28/2023 17:43:19.030,0.523,0.238,0.176
4/28/2023 17:43:19.040,0.48,0.262,0.176
4/28/2023 17:43:19.050,0.457,0.289,0.168
4/28/2023 17:43:19.060,0.445,0.293,0.16
4/28/2023 17:43:19.070,0.438,0.281,0.148
4/28/2023 17:43:19.080,0.438,0.277,0.145
4/28/2023 17:43:19.090,0.441,0.281,0.141
4/28/2023 17:43:19.100,0.449,0.281,0.141
4/28/2023 17:43:19.110,0.469,0.285,0.141
4/28/2023 17:43:19.120,0.512,0.293,0.148
4/28/2023 17:43:19.130,0.578,0.305,0.16
4/28/2023 17:43:19.140,0.652,0.313,0.176
4/28/2023 17:43:19.150,0.723,0.328,0.18
4/28/2023 17:43:19.160,0.781,0.348,0.18
4/28/2023 17:43:19.170,0.828,0.359,0.176
4/28/2023 17:43:19.180,0.879,0.367,0.156
4/28/2023 17:43:19.190,0.93,0.371,0.125
4/28/2023 17:43:19.200,1,0.371,0.086
4/28/2023 17:43:19.210,1.094,0.359,0.051
4/28/2023 17:43:19.220,1.215,0.379,0.027
4/28/2023 17:43:19.230,1.34,0.395,0.016
4/28/2023 17:43:19.240,1.43,0.41,0.023
4/28/2023 17:43:19.250,1.469,0.426,0.031
4/28/2023 17:43:19.260,1.445,0.449,0.047
4/28/2023 17:43:19.270,1.387,0.465,0.047
4/28/2023 17:43:19.280,1.355,0.461,0.027
4/28/2023 17:43:19.290,1.434,0.477,0.004
4/28/2023 17:43:19.300,1.563,0.516,0.02
4/28/2023 17:43:19.310,1.609,0.566,0.055
4/28/2023 17:43:19.320,1.547,0.617,0.109
4/28/2023 17:43:19.330,1.395,0.652,0.145
4/28/2023 17:43:19.340,1.238,0.676,0.156
4/28/2023 17:43:19.350,1.133,0.664,0.152
4/28/2023 17:43:19.360,1.074,0.621,0.137
4/28/2023 17:43:19.370,1.074,0.555,0.098
4/28/2023 17:43:19.380,1.125,0.469,0.047
4/28/2023 17:43:19.390,1.199,0.379,0
4/28/2023 17:43:19.400,1.262,0.32,-0.023
4/28/2023 17:43:19.410,1.281,0.301,-0.016
4/28/2023 17:43:19.420,1.234,0.301,0.008
4/28/2023 17:43:19.430,1.148,0.305,0.027
4/28/2023 17:43:19.440,1.039,0.305,0.047
4/28/2023 17:43:19.450,0.938,0.293,0.055
4/28/2023 17:43:19.460,0.852,0.289,0.055
4/28/2023 17:43:19.470,0.777,0.301,0.063
4/28/2023 17:43:19.480,0.715,0.316,0.063
4/28/2023 17:43:19.490,0.68,0.316,0.078
4/28/2023 17:43:19.500,0.629,0.32,0.086
4/28/2023 17:43:19.510,0.598,0.336,0.086
4/28/2023 17:43:19.520,0.57,0.352,0.074
4/28/2023 17:43:19.530,0.551,0.348,0.066
4/28/2023 17:43:19.540,0.539,0.34,0.059
4/28/2023 17:43:19.550,0.531,0.328,0.063
4/28/2023 17:43:19.560,0.531,0.313,0.066
4/28/2023 17:43:19.570,0.531,0.305,0.07
4/28/2023 17:43:19.580,0.527,0.285,0.066
4/28/2023 17:43:19.590,0.539,0.273,0.059
4/28/2023 17:43:19.600,0.547,0.258,0.047
4/28/2023 17:43:19.610,0.559,0.25,0.039
4/28/2023 17:43:19.620,0.57,0.242,0.035
4/28/2023 17:43:19.630,0.59,0.234,0.027
4/28/2023 17:43:19.640,0.625,0.23,0.027
4/28/2023 17:43:19.650,0.68,0.23,0.027
4/28/2023 17:43:19.660,0.754,0.242,0.012
4/28/2023 17:43:19.670,0.816,0.246,0.008
4/28/2023 17:43:19.680,0.848,0.254,-0.004
4/28/2023 17:43:19.690,0.883,0.266,-0.016
4/28/2023 17:43:19.700,0.938,0.277,-0.027
4/28/2023 17:43:19.710,1.02,0.289,-0.031
4/28/2023 17:43:19.720,1.129,0.301,-0.031
4/28/2023 17:43:19.730,1.246,0.313,-0.027
4/28/2023 17:43:19.740,1.324,0.32,-0.023
4/28/2023 17:43:19.750,1.328,0.332,0
4/28/2023 17:43:19.760,1.246,0.344,0.039
4/28/2023 17:43:19.770,1.191,0.336,0.059
4/28/2023 17:43:19.780,1.25,0.34,0.02
4/28/2023 17:43:19.790,1.379,0.379,-0.031
4/28/2023 17:43:19.800,1.457,0.391,-0.055
4/28/2023 17:43:19.810,1.438,0.402,-0.059
4/28/2023 17:43:19.820,1.348,0.434,-0.023
4/28/2023 17:43:19.830,1.211,0.48,0.035
4/28/2023 17:43:19.840,1.07,0.516,0.094
4/28/2023 17:43:19.850,0.969,0.527,0.129
4/28/2023 17:43:19.860,0.949,0.512,0.121
4/28/2023 17:43:19.870,1.047,0.492,0.086
4/28/2023 17:43:19.880,1.184,0.449,0.047
4/28/2023 17:43:19.890,1.309,0.406,0.02
4/28/2023 17:43:19.900,1.359,0.371,0.012
4/28/2023 17:43:19.910,1.316,0.34,0.023
4/28/2023 17:43:19.920,1.188,0.297,0.051
4/28/2023 17:43:19.930,1.043,0.258,0.082
4/28/2023 17:43:19.940,0.91,0.223,0.117
4/28/2023 17:43:19.950,0.797,0.207,0.148
4/28/2023 17:43:19.960,0.691,0.195,0.168
4/28/2023 17:43:19.970,0.59,0.207,0.176
4/28/2023 17:43:19.980,0.535,0.219,0.172
4/28/2023 17:43:19.990,0.52,0.234,0.172
4/28/2023 17:43:20.000,0.504,0.227,0.172
4/28/2023 17:43:20.010,0.492,0.207,0.164
4/28/2023 17:43:20.020,0.469,0.203,0.16
4/28/2023 17:43:20.030,0.445,0.215,0.148
4/28/2023 17:43:20.040,0.441,0.246,0.141
4/28/2023 17:43:20.050,0.438,0.273,0.133
4/28/2023 17:43:20.060,0.445,0.297,0.137
4/28/2023 17:43:20.070,0.461,0.32,0.137
4/28/2023 17:43:20.080,0.484,0.336,0.141
4/28/2023 17:43:20.090,0.52,0.355,0.141
4/28/2023 17:43:20.100,0.563,0.367,0.145
4/28/2023 17:43:20.110,0.621,0.367,0.152
4/28/2023 17:43:20.120,0.691,0.363,0.148
4/28/2023 17:43:20.130,0.777,0.371,0.145
4/28/2023 17:43:20.140,0.859,0.395,0.133
4/28/2023 17:43:20.150,0.938,0.41,0.117
4/28/2023 17:43:20.160,1.027,0.418,0.09
4/28/2023 17:43:20.170,1.129,0.43,0.059
4/28/2023 17:43:20.180,1.23,0.445,0.027
4/28/2023 17:43:20.190,1.316,0.469,0.008
4/28/2023 17:43:20.200,1.367,0.492,0.008
4/28/2023 17:43:20.210,1.379,0.52,0.031
4/28/2023 17:43:20.220,1.344,0.547,0.051
4/28/2023 17:43:20.230,1.289,0.555,0.047
4/28/2023 17:43:20.240,1.301,0.57,0.027
4/28/2023 17:43:20.250,1.402,0.609,0.023
4/28/2023 17:43:20.260,1.496,0.66,0.051
4/28/2023 17:43:20.270,1.496,0.703,0.102
4/28/2023 17:43:20.280,1.387,0.727,0.145
4/28/2023 17:43:20.290,1.242,0.738,0.168
4/28/2023 17:43:20.300,1.133,0.738,0.168
4/28/2023 17:43:20.310,1.07,0.703,0.145
4/28/2023 17:43:20.320,1.059,0.633,0.09
4/28/2023 17:43:20.330,1.086,0.547,0.027
4/28/2023 17:43:20.340,1.145,0.449,-0.047
4/28/2023 17:43:20.350,1.23,0.371,-0.105
4/28/2023 17:43:20.360,1.289,0.324,-0.113
4/28/2023 17:43:20.370,1.281,0.297,-0.09
4/28/2023 17:43:20.380,1.215,0.285,-0.051
4/28/2023 17:43:20.390,1.129,0.289,-0.004
4/28/2023 17:43:20.400,1.047,0.297,0.039
4/28/2023 17:43:20.410,0.957,0.305,0.066
4/28/2023 17:43:20.420,0.871,0.309,0.082
4/28/2023 17:43:20.430,0.777,0.297,0.086
4/28/2023 17:43:20.440,0.695,0.285,0.082
4/28/2023 17:43:20.450,0.637,0.293,0.078
4/28/2023 17:43:20.460,0.586,0.309,0.07
4/28/2023 17:43:20.470,0.543,0.313,0.078
4/28/2023 17:43:20.480,0.516,0.309,0.086
4/28/2023 17:43:20.490,0.516,0.305,0.098
4/28/2023 17:43:20.500,0.512,0.293,0.102
4/28/2023 17:43:20.510,0.52,0.273,0.102
4/28/2023 17:43:20.520,0.523,0.262,0.102
4/28/2023 17:43:20.530,0.527,0.246,0.09
4/28/2023 17:43:20.540,0.531,0.234,0.078
4/28/2023 17:43:20.550,0.543,0.234,0.066
4/28/2023 17:43:20.560,0.566,0.242,0.063
4/28/2023 17:43:20.570,0.617,0.254,0.051
4/28/2023 17:43:20.580,0.68,0.266,0.047
4/28/2023 17:43:20.590,0.734,0.266,0.047
4/28/2023 17:43:20.600,0.777,0.266,0.035
4/28/2023 17:43:20.610,0.813,0.254,0.031
4/28/2023 17:43:20.620,0.863,0.25,0.02
4/28/2023 17:43:20.630,0.922,0.25,0.004
4/28/2023 17:43:20.640,0.996,0.25,-0.004
4/28/2023 17:43:20.650,1.086,0.258,-0.016
4/28/2023 17:43:20.660,1.195,0.281,-0.016
4/28/2023 17:43:20.670,1.293,0.297,-0.016
4/28/2023 17:43:20.680,1.355,0.309,-0.004
4/28/2023 17:43:20.690,1.352,0.328,0
4/28/2023 17:43:20.700,1.297,0.332,-0.008
4/28/2023 17:43:20.710,1.297,0.34,-0.051
4/28/2023 17:43:20.720,1.387,0.379,-0.105
4/28/2023 17:43:20.730,1.473,0.418,-0.133
4/28/2023 17:43:20.740,1.469,0.441,-0.117
4/28/2023 17:43:20.750,1.363,0.473,-0.07
4/28/2023 17:43:20.760,1.219,0.52,0.012
4/28/2023 17:43:20.770,1.09,0.578,0.113
4/28/2023 17:43:20.780,0.996,0.613,0.199
4/28/2023 17:43:20.790,0.973,0.613,0.211
4/28/2023 17:43:20.800,1.031,0.582,0.164
4/28/2023 17:43:20.810,1.172,0.527,0.09
4/28/2023 17:43:20.820,1.285,0.438,0.012
4/28/2023 17:43:20.830,1.324,0.355,-0.031
4/28/2023 17:43:20.840,1.27,0.301,-0.039
4/28/2023 17:43:20.850,1.137,0.258,-0.012
4/28/2023 17:43:20.860,0.996,0.215,0.051
4/28/2023 17:43:20.870,0.891,0.18,0.113
4/28/2023 17:43:20.880,0.789,0.145,0.176
4/28/2023 17:43:20.890,0.676,0.117,0.211
4/28/2023 17:43:20.900,0.574,0.121,0.227
4/28/2023 17:43:20.910,0.496,0.172,0.219
4/28/2023 17:43:20.920,0.461,0.203,0.215
4/28/2023 17:43:20.930,0.438,0.207,0.211
4/28/2023 17:43:20.940,0.422,0.227,0.199
4/28/2023 17:43:20.950,0.418,0.23,0.18
4/28/2023 17:43:20.960,0.414,0.242,0.164
4/28/2023 17:43:20.970,0.422,0.246,0.141
4/28/2023 17:43:20.980,0.426,0.25,0.125
4/28/2023 17:43:20.990,0.445,0.27,0.121
4/28/2023 17:43:21.000,0.484,0.293,0.129
4/28/2023 17:43:21.010,0.551,0.313,0.145
4/28/2023 17:43:21.020,0.625,0.352,0.176
4/28/2023 17:43:21.030,0.676,0.379,0.188
4/28/2023 17:43:21.040,0.699,0.391,0.191
4/28/2023 17:43:21.050,0.727,0.383,0.18
4/28/2023 17:43:21.060,0.77,0.375,0.156
4/28/2023 17:43:21.070,0.844,0.363,0.117
4/28/2023 17:43:21.080,0.93,0.359,0.086
4/28/2023 17:43:21.090,1.027,0.355,0.055
4/28/2023 17:43:21.100,1.137,0.367,0.039
4/28/2023 17:43:21.110,1.246,0.402,0.039
4/28/2023 17:43:21.120,1.352,0.438,0.051
4/28/2023 17:43:21.130,1.41,0.465,0.07
4/28/2023 17:43:21.140,1.41,0.492,0.086
4/28/2023 17:43:21.150,1.359,0.504,0.082
4/28/2023 17:43:21.160,1.336,0.52,0.066
4/28/2023 17:43:21.170,1.426,0.547,0.055
4/28/2023 17:43:21.180,1.551,0.59,0.07
4/28/2023 17:43:21.190,1.613,0.633,0.109
4/28/2023 17:43:21.200,1.559,0.664,0.152
4/28/2023 17:43:21.210,1.41,0.688,0.176
4/28/2023 17:43:21.220,1.266,0.703,0.176
4/28/2023 17:43:21.230,1.164,0.68,0.16
4/28/2023 17:43:21.240,1.105,0.617,0.129
4/28/2023 17:43:21.250,1.102,0.551,0.09
4/28/2023 17:43:21.260,1.152,0.48,0.039
4/28/2023 17:43:21.270,1.23,0.418,-0.008
4/28/2023 17:43:21.280,1.293,0.363,-0.039
4/28/2023 17:43:21.290,1.309,0.336,-0.039
4/28/2023 17:43:21.300,1.242,0.328,-0.023
4/28/2023 17:43:21.310,1.133,0.324,0.008
4/28/2023 17:43:21.320,1.012,0.313,0.043
4/28/2023 17:43:21.330,0.895,0.293,0.07
4/28/2023 17:43:21.340,0.77,0.273,0.094
4/28/2023 17:43:21.350,0.664,0.25,0.102
4/28/2023 17:43:21.360,0.578,0.227,0.113
4/28/2023 17:43:21.370,0.527,0.215,0.125
4/28/2023 17:43:21.380,0.504,0.223,0.133
4/28/2023 17:43:21.390,0.484,0.242,0.129
4/28/2023 17:43:21.400,0.488,0.273,0.125
4/28/2023 17:43:21.410,0.492,0.309,0.105
4/28/2023 17:43:21.420,0.492,0.336,0.098
4/28/2023 17:43:21.430,0.488,0.348,0.078
4/28/2023 17:43:21.440,0.484,0.355,0.07
4/28/2023 17:43:21.450,0.484,0.34,0.063
4/28/2023 17:43:21.460,0.488,0.301,0.063
4/28/2023 17:43:21.470,0.496,0.27,0.055
4/28/2023 17:43:21.480,0.52,0.266,0.043
4/28/2023 17:43:21.490,0.563,0.266,0.039
4/28/2023 17:43:21.500,0.609,0.27,0.035
4/28/2023 17:43:21.510,0.691,0.277,0.031
4/28/2023 17:43:21.520,0.754,0.285,0.02
4/28/2023 17:43:21.530,0.801,0.289,0.016
4/28/2023 17:43:21.540,0.828,0.301,0.016
4/28/2023 17:43:21.550,0.84,0.32,0.02
4/28/2023 17:43:21.560,0.875,0.336,0.023
4/28/2023 17:43:21.570,0.934,0.348,0.027
4/28/2023 17:43:21.580,1.012,0.359,0.027
4/28/2023 17:43:21.590,1.105,0.371,0.016
4/28/2023 17:43:21.600,1.203,0.379,-0.004
4/28/2023 17:43:21.610,1.277,0.383,-0.004
4/28/2023 17:43:21.620,1.289,0.383,0.016
4/28/2023 17:43:21.630,1.223,0.383,0.055
4/28/2023 17:43:21.640,1.152,0.363,0.09
4/28/2023 17:43:21.650,1.176,0.352,0.07
4/28/2023 17:43:21.660,1.293,0.375,0.023
4/28/2023 17:43:21.670,1.367,0.375,-0.012
4/28/2023 17:43:21.680,1.332,0.363,-0.031
4/28/2023 17:43:21.690,1.234,0.383,-0.035
4/28/2023 17:43:21.700,1.129,0.426,-0.016
4/28/2023 17:43:21.710,1.043,0.465,0.023
4/28/2023 17:43:21.720,1,0.5,0.051
4/28/2023 17:43:21.730,1.02,0.504,0.055
4/28/2023 17:43:21.740,1.105,0.488,0.039
4/28/2023 17:43:21.750,1.227,0.469,0.016
4/28/2023 17:43:21.760,1.324,0.445,0
4/28/2023 17:43:21.770,1.355,0.422,0.012
4/28/2023 17:43:21.780,1.301,0.398,0.043
4/28/2023 17:43:21.790,1.18,0.371,0.078
4/28/2023 17:43:21.800,1.047,0.352,0.121
4/28/2023 17:43:21.810,0.93,0.332,0.18
4/28/2023 17:43:21.820,0.82,0.301,0.227
4/28/2023 17:43:21.830,0.711,0.266,0.273
4/28/2023 17:43:21.840,0.613,0.238,0.289
4/28/2023 17:43:21.850,0.547,0.215,0.281
4/28/2023 17:43:21.860,0.512,0.215,0.262
4/28/2023 17:43:21.870,0.496,0.211,0.242
4/28/2023 17:43:21.880,0.492,0.191,0.215
4/28/2023 17:43:21.890,0.492,0.176,0.191
4/28/2023 17:43:21.900,0.496,0.184,0.176
4/28/2023 17:43:21.910,0.496,0.207,0.164
4/28/2023 17:43:21.920,0.504,0.227,0.16
4/28/2023 17:43:21.930,0.512,0.25,0.172
4/28/2023 17:43:21.940,0.539,0.266,0.191
4/28/2023 17:43:21.950,0.574,0.281,0.203
4/28/2023 17:43:21.960,0.609,0.293,0.219
4/28/2023 17:43:21.970,0.648,0.309,0.219
4/28/2023 17:43:21.980,0.688,0.324,0.215
4/28/2023 17:43:21.990,0.742,0.332,0.199
4/28/2023 17:43:22.000,0.805,0.352,0.172
4/28/2023 17:43:22.010,0.883,0.363,0.137
4/28/2023 17:43:22.020,0.973,0.391,0.102
4/28/2023 17:43:22.030,1.066,0.422,0.066
4/28/2023 17:43:22.040,1.168,0.445,0.039
4/28/2023 17:43:22.050,1.262,0.457,0.039
4/28/2023 17:43:22.060,1.324,0.449,0.055
4/28/2023 17:43:22.070,1.348,0.449,0.07
4/28/2023 17:43:22.080,1.367,0.477,0.082
4/28/2023 17:43:22.090,1.371,0.508,0.09
4/28/2023 17:43:22.100,1.336,0.535,0.086
4/28/2023 17:43:22.110,1.262,0.531,0.063
4/28/2023 17:43:22.120,1.242,0.52,0.043
4/28/2023 17:43:22.130,1.293,0.535,0.055
4/28/2023 17:43:22.140,1.309,0.555,0.086
4/28/2023 17:43:22.150,1.234,0.586,0.117
4/28/2023 17:43:22.160,1.137,0.621,0.141
4/28/2023 17:43:22.170,1.066,0.652,0.152
4/28/2023 17:43:22.180,1.035,0.656,0.141
4/28/2023 17:43:22.190,1.059,0.629,0.094
4/28/2023 17:43:22.200,1.121,0.566,0.02
4/28/2023 17:43:22.210,1.211,0.5,-0.063
4/28/2023 17:43:22.220,1.293,0.441,-0.125
4/28/2023 17:43:22.230,1.32,0.375,-0.156
4/28/2023 17:43:22.240,1.254,0.316,-0.145
4/28/2023 17:43:22.250,1.148,0.293,-0.109
4/28/2023 17:43:22.260,1.047,0.285,-0.066
4/28/2023 17:43:22.270,0.949,0.297,-0.004
4/28/2023 17:43:22.280,0.871,0.305,0.051
4/28/2023 17:43:22.290,0.828,0.324,0.094
4/28/2023 17:43:22.300,0.793,0.344,0.113
4/28/2023 17:43:22.310,0.758,0.348,0.109
4/28/2023 17:43:22.320,0.727,0.363,0.09
4/28/2023 17:43:22.330,0.68,0.375,0.07
4/28/2023 17:43:22.340,0.621,0.379,0.055
4/28/2023 17:43:22.350,0.586,0.379,0.043
4/28/2023 17:43:22.360,0.555,0.371,0.051
4/28/2023 17:43:22.370,0.543,0.34,0.059
4/28/2023 17:43:22.380,0.539,0.293,0.074
4/28/2023 17:43:22.390,0.543,0.262,0.09
4/28/2023 17:43:22.400,0.551,0.266,0.098
4/28/2023 17:43:22.410,0.566,0.266,0.094
4/28/2023 17:43:22.420,0.578,0.258,0.078
4/28/2023 17:43:22.430,0.602,0.254,0.066
4/28/2023 17:43:22.440,0.621,0.262,0.055
4/28/2023 17:43:22.450,0.652,0.277,0.051
4/28/2023 17:43:22.460,0.695,0.301,0.059
4/28/2023 17:43:22.470,0.75,0.316,0.063
4/28/2023 17:43:22.480,0.809,0.328,0.059
4/28/2023 17:43:22.490,0.863,0.332,0.055
4/28/2023 17:43:22.500,0.906,0.344,0.051
4/28/2023 17:43:22.510,0.973,0.348,0.035
4/28/2023 17:43:22.520,1.055,0.355,0.012
4/28/2023 17:43:22.530,1.148,0.344,0
4/28/2023 17:43:22.540,1.238,0.332,-0.004
4/28/2023 17:43:22.550,1.297,0.324,-0.004
4/28/2023 17:43:22.560,1.293,0.309,0
4/28/2023 17:43:22.570,1.238,0.27,-0.004
4/28/2023 17:43:22.580,1.242,0.25,-0.055
4/28/2023 17:43:22.590,1.348,0.277,-0.125
4/28/2023 17:43:22.600,1.469,0.34,-0.164
4/28/2023 17:43:22.610,1.504,0.391,-0.156
4/28/2023 17:43:22.620,1.406,0.438,-0.105
4/28/2023 17:43:22.630,1.227,0.492,-0.031
4/28/2023 17:43:22.640,1.051,0.551,0.066
4/28/2023 17:43:22.650,0.953,0.574,0.133
4/28/2023 17:43:22.660,0.961,0.535,0.133
4/28/2023 17:43:22.670,1.074,0.453,0.074
4/28/2023 17:43:22.680,1.238,0.367,0.004
4/28/2023 17:43:22.690,1.359,0.316,-0.047
4/28/2023 17:43:22.700,1.391,0.301,-0.066
4/28/2023 17:43:22.710,1.301,0.297,-0.051
4/28/2023 17:43:22.720,1.137,0.285,-0.02
4/28/2023 17:43:22.730,0.973,0.273,0.027
4/28/2023 17:43:22.740,0.848,0.277,0.074
4/28/2023 17:43:22.750,0.746,0.277,0.113
4/28/2023 17:43:22.760,0.672,0.266,0.133
4/28/2023 17:43:22.770,0.598,0.266,0.141
4/28/2023 17:43:22.780,0.531,0.273,0.16
4/28/2023 17:43:22.790,0.492,0.289,0.172
4/28/2023 17:43:22.800,0.473,0.297,0.184
4/28/2023 17:43:22.810,0.461,0.293,0.184
4/28/2023 17:43:22.820,0.461,0.285,0.188
4/28/2023 17:43:22.830,0.461,0.285,0.184
4/28/2023 17:43:22.840,0.469,0.281,0.18
4/28/2023 17:43:22.850,0.48,0.281,0.172
4/28/2023 17:43:22.860,0.488,0.285,0.172
4/28/2023 17:43:22.870,0.492,0.285,0.184
4/28/2023 17:43:22.880,0.512,0.293,0.207
4/28/2023 17:43:22.890,0.543,0.301,0.223
4/28/2023 17:43:22.900,0.582,0.32,0.238
4/28/2023 17:43:22.910,0.629,0.336,0.242
4/28/2023 17:43:22.920,0.684,0.348,0.242
4/28/2023 17:43:22.930,0.758,0.363,0.215
4/28/2023 17:43:22.940,0.84,0.375,0.168
4/28/2023 17:43:22.950,0.922,0.383,0.121
4/28/2023 17:43:22.960,1,0.398,0.082
4/28/2023 17:43:22.970,1.059,0.418,0.063
4/28/2023 17:43:22.980,1.121,0.445,0.051
4/28/2023 17:43:22.990,1.195,0.453,0.059
4/28/2023 17:43:23.000,1.262,0.469,0.059
4/28/2023 17:43:23.010,1.336,0.48,0.07
4/28/2023 17:43:23.020,1.367,0.492,0.066
4/28/2023 17:43:23.030,1.344,0.496,0.023
4/28/2023 17:43:23.040,1.332,0.492,-0.035
4/28/2023 17:43:23.050,1.418,0.531,-0.07
4/28/2023 17:43:23.060,1.566,0.594,-0.063
4/28/2023 17:43:23.070,1.656,0.652,-0.027
4/28/2023 17:43:23.080,1.617,0.664,0.023
4/28/2023 17:43:23.090,1.477,0.652,0.066
4/28/2023 17:43:23.100,1.313,0.629,0.082
4/28/2023 17:43:23.110,1.18,0.586,0.07
4/28/2023 17:43:23.120,1.094,0.52,0.031
4/28/2023 17:43:23.130,1.055,0.422,-0.02
4/28/2023 17:43:23.140,1.082,0.336,-0.066
4/28/2023 17:43:23.150,1.16,0.285,-0.094
4/28/2023 17:43:23.160,1.219,0.25,-0.109
4/28/2023 17:43:23.170,1.191,0.238,-0.102
4/28/2023 17:43:23.180,1.086,0.23,-0.07
4/28/2023 17:43:23.190,0.957,0.23,-0.047
4/28/2023 17:43:23.200,0.852,0.242,-0.02
4/28/2023 17:43:23.210,0.773,0.258,0.02
4/28/2023 17:43:23.220,0.707,0.266,0.047
4/28/2023 17:43:23.230,0.641,0.281,0.063
4/28/2023 17:43:23.240,0.605,0.301,0.07
4/28/2023 17:43:23.250,0.613,0.313,0.063
4/28/2023 17:43:23.260,0.625,0.305,0.043
4/28/2023 17:43:23.270,0.621,0.289,0.035
4/28/2023 17:43:23.280,0.59,0.266,0.027
4/28/2023 17:43:23.290,0.547,0.242,0.023
4/28/2023 17:43:23.300,0.5,0.215,0.031
4/28/2023 17:43:23.310,0.477,0.195,0.047
4/28/2023 17:43:23.320,0.465,0.199,0.055
4/28/2023 17:43:23.330,0.469,0.215,0.066
4/28/2023 17:43:23.340,0.488,0.242,0.078
4/28/2023 17:43:23.350,0.52,0.234,0.078
4/28/2023 17:43:23.360,0.563,0.242,0.074
4/28/2023 17:43:23.370,0.621,0.254,0.063
4/28/2023 17:43:23.380,0.688,0.281,0.043
4/28/2023 17:43:23.390,0.75,0.316,0.031
4/28/2023 17:43:23.400,0.805,0.352,0.031
4/28/2023 17:43:23.410,0.836,0.379,0.039
4/28/2023 17:43:23.420,0.844,0.395,0.055
4/28/2023 17:43:23.430,0.852,0.406,0.07
4/28/2023 17:43:23.440,0.902,0.398,0.074
4/28/2023 17:43:23.450,0.988,0.367,0.055
4/28/2023 17:43:23.460,1.102,0.344,0.023
4/28/2023 17:43:23.470,1.238,0.32,-0.02
4/28/2023 17:43:23.480,1.352,0.313,-0.055
4/28/2023 17:43:23.490,1.438,0.316,-0.066
4/28/2023 17:43:23.500,1.457,0.328,-0.047
4/28/2023 17:43:23.510,1.414,0.332,-0.02
4/28/2023 17:43:23.520,1.375,0.328,-0.059
4/28/2023 17:43:23.530,1.445,0.352,-0.121
4/28/2023 17:43:23.540,1.582,0.383,-0.168
4/28/2023 17:43:23.550,1.633,0.387,-0.176
4/28/2023 17:43:23.560,1.504,0.371,-0.16
4/28/2023 17:43:23.570,1.258,0.379,-0.133
4/28/2023 17:43:23.580,1.012,0.414,-0.066
4/28/2023 17:43:23.590,0.859,0.453,0.016
4/28/2023 17:43:23.600,0.863,0.449,0.051
4/28/2023 17:43:23.610,1.016,0.41,0.059
4/28/2023 17:43:23.620,1.246,0.375,0.047
4/28/2023 17:43:23.630,1.418,0.359,0.012
4/28/2023 17:43:23.640,1.469,0.328,-0.023
4/28/2023 17:43:23.650,1.367,0.273,-0.051
4/28/2023 17:43:23.660,1.172,0.219,-0.063
4/28/2023 17:43:23.670,0.988,0.176,-0.039
4/28/2023 17:43:23.680,0.863,0.168,0.016
4/28/2023 17:43:23.690,0.781,0.191,0.078
4/28/2023 17:43:23.700,0.727,0.207,0.125
4/28/2023 17:43:23.710,0.68,0.207,0.148
4/28/2023 17:43:23.720,0.641,0.227,0.152
4/28/2023 17:43:23.730,0.617,0.238,0.148
4/28/2023 17:43:23.740,0.582,0.238,0.121
4/28/2023 17:43:23.750,0.551,0.227,0.105
4/28/2023 17:43:23.760,0.531,0.199,0.098
4/28/2023 17:43:23.770,0.508,0.191,0.102
4/28/2023 17:43:23.780,0.5,0.195,0.109
4/28/2023 17:43:23.790,0.496,0.199,0.129
4/28/2023 17:43:23.800,0.496,0.211,0.137
4/28/2023 17:43:23.810,0.531,0.219,0.141
4/28/2023 17:43:23.820,0.574,0.207,0.152
4/28/2023 17:43:23.830,0.629,0.207,0.156
4/28/2023 17:43:23.840,0.691,0.223,0.156
4/28/2023 17:43:23.850,0.719,0.238,0.152
4/28/2023 17:43:23.860,0.719,0.246,0.152
4/28/2023 17:43:23.870,0.707,0.246,0.145
4/28/2023 17:43:23.880,0.707,0.258,0.133
4/28/2023 17:43:23.890,0.727,0.27,0.109
4/28/2023 17:43:23.900,0.789,0.293,0.086
4/28/2023 17:43:23.910,0.887,0.324,0.063
4/28/2023 17:43:23.920,1.004,0.352,0.043
4/28/2023 17:43:23.930,1.129,0.363,0.016
4/28/2023 17:43:23.940,1.238,0.371,-0.012
4/28/2023 17:43:23.950,1.305,0.375,-0.043
4/28/2023 17:43:23.960,1.313,0.379,-0.063
4/28/2023 17:43:23.970,1.27,0.379,-0.074
4/28/2023 17:43:23.980,1.184,0.375,-0.09
4/28/2023 17:43:23.990,1.152,0.371,-0.109
4/28/2023 17:43:24.000,1.27,0.438,-0.074
4/28/2023 17:43:24.010,1.527,0.559,0.008
4/28/2023 17:43:24.020,1.719,0.684,0.078
4/28/2023 17:43:24.030,1.73,0.734,0.117
4/28/2023 17:43:24.040,1.594,0.715,0.113
4/28/2023 17:43:24.050,1.395,0.672,0.051
4/28/2023 17:43:24.060,1.219,0.598,-0.027
4/28/2023 17:43:24.070,1.109,0.504,-0.094
4/28/2023 17:43:24.080,1.086,0.402,-0.121
4/28/2023 17:43:24.090,1.148,0.313,-0.109
4/28/2023 17:43:24.100,1.273,0.266,-0.066
4/28/2023 17:43:24.110,1.352,0.234,-0.023
4/28/2023 17:43:24.120,1.34,0.23,0.016
4/28/2023 17:43:24.130,1.223,0.238,0.016
4/28/2023 17:43:24.140,1.086,0.262,0.004
4/28/2023 17:43:24.150,0.969,0.27,0.016
4/28/2023 17:43:24.160,0.875,0.277,0.031
4/28/2023 17:43:24.170,0.785,0.293,0.059
4/28/2023 17:43:24.180,0.699,0.324,0.078
4/28/2023 17:43:24.190,0.645,0.355,0.098
4/28/2023 17:43:24.200,0.625,0.367,0.102
4/28/2023 17:43:24.210,0.625,0.348,0.109
4/28/2023 17:43:24.220,0.609,0.313,0.109
4/28/2023 17:43:24.230,0.582,0.285,0.105
4/28/2023 17:43:24.240,0.547,0.281,0.094
4/28/2023 17:43:24.250,0.52,0.285,0.086
4/28/2023 17:43:24.260,0.512,0.289,0.086
4/28/2023 17:43:24.270,0.512,0.285,0.09
4/28/2023 17:43:24.280,0.527,0.285,0.086
4/28/2023 17:43:24.290,0.543,0.285,0.082
4/28/2023 17:43:24.300,0.559,0.289,0.07
4/28/2023 17:43:24.310,0.578,0.293,0.063
4/28/2023 17:43:24.320,0.609,0.301,0.047
4/28/2023 17:43:24.330,0.645,0.305,0.043
4/28/2023 17:43:24.340,0.688,0.309,0.039
4/28/2023 17:43:24.350,0.719,0.309,0.035
4/28/2023 17:43:24.360,0.746,0.309,0.027
4/28/2023 17:43:24.370,0.77,0.293,0.016
4/28/2023 17:43:24.380,0.797,0.277,0.004
4/28/2023 17:43:24.390,0.844,0.266,-0.012
4/28/2023 17:43:24.400,0.938,0.266,-0.035
4/28/2023 17:43:24.410,1.078,0.277,-0.059
4/28/2023 17:43:24.420,1.238,0.289,-0.082
4/28/2023 17:43:24.430,1.359,0.285,-0.105
4/28/2023 17:43:24.440,1.41,0.277,-0.117
4/28/2023 17:43:24.450,1.367,0.273,-0.113
4/28/2023 17:43:24.460,1.254,0.27,-0.098
4/28/2023 17:43:24.470,1.141,0.277,-0.066
4/28/2023 17:43:24.480,1.094,0.266,-0.047
4/28/2023 17:43:24.490,1.195,0.254,-0.07
4/28/2023 17:43:24.500,1.328,0.266,-0.105
4/28/2023 17:43:24.510,1.387,0.266,-0.117
4/28/2023 17:43:24.520,1.336,0.281,-0.129
4/28/2023 17:43:24.530,1.227,0.336,-0.125
4/28/2023 17:43:24.540,1.121,0.398,-0.094
4/28/2023 17:43:24.550,1.047,0.461,-0.047
4/28/2023 17:43:24.560,1.031,0.496,-0.023
4/28/2023 17:43:24.570,1.082,0.504,-0.012
4/28/2023 17:43:24.580,1.191,0.48,-0.008
4/28/2023 17:43:24.590,1.313,0.453,-0.008
4/28/2023 17:43:24.600,1.414,0.438,-0.008
4/28/2023 17:43:24.610,1.43,0.398,-0.008
4/28/2023 17:43:24.620,1.34,0.309,0.004
4/28/2023 17:43:24.630,1.184,0.238,0.023
4/28/2023 17:43:24.640,1.031,0.199,0.051
4/28/2023 17:43:24.650,0.906,0.176,0.098
4/28/2023 17:43:24.660,0.785,0.145,0.141
4/28/2023 17:43:24.670,0.691,0.125,0.172
4/28/2023 17:43:24.680,0.633,0.137,0.188
4/28/2023 17:43:24.690,0.582,0.16,0.188
4/28/2023 17:43:24.700,0.527,0.16,0.18
4/28/2023 17:43:24.710,0.473,0.141,0.176
4/28/2023 17:43:24.720,0.434,0.125,0.168
4/28/2023 17:43:24.730,0.41,0.137,0.172
4/28/2023 17:43:24.740,0.402,0.18,0.172
4/28/2023 17:43:24.750,0.41,0.227,0.156
4/28/2023 17:43:24.760,0.41,0.289,0.145
4/28/2023 17:43:24.770,0.418,0.32,0.133
4/28/2023 17:43:24.780,0.449,0.309,0.133
4/28/2023 17:43:24.790,0.488,0.289,0.141
4/28/2023 17:43:24.800,0.523,0.293,0.152
4/28/2023 17:43:24.810,0.559,0.293,0.156
4/28/2023 17:43:24.820,0.609,0.305,0.168
4/28/2023 17:43:24.830,0.691,0.324,0.168
4/28/2023 17:43:24.840,0.789,0.34,0.156
4/28/2023 17:43:24.850,0.895,0.344,0.129
4/28/2023 17:43:24.860,1.004,0.348,0.102
4/28/2023 17:43:24.870,1.094,0.348,0.055
4/28/2023 17:43:24.880,1.18,0.355,0.008
4/28/2023 17:43:24.890,1.254,0.367,-0.023
4/28/2023 17:43:24.900,1.305,0.383,-0.043
4/28/2023 17:43:24.910,1.355,0.414,-0.047
4/28/2023 17:43:24.920,1.402,0.449,-0.035
4/28/2023 17:43:24.930,1.41,0.477,-0.02
4/28/2023 17:43:24.940,1.367,0.488,-0.02
4/28/2023 17:43:24.950,1.359,0.492,-0.043
4/28/2023 17:43:24.960,1.445,0.527,-0.059
4/28/2023 17:43:24.970,1.551,0.582,-0.047
4/28/2023 17:43:24.980,1.547,0.625,-0.012
4/28/2023 17:43:24.990,1.43,0.656,0.039
4/28/2023 17:43:25.000,1.258,0.699,0.094
4/28/2023 17:43:25.010,1.121,0.742,0.137
4/28/2023 17:43:25.020,1.031,0.75,0.152
4/28/2023 17:43:25.030,1.004,0.703,0.133
4/28/2023 17:43:25.040,1.023,0.621,0.07
4/28/2023 17:43:25.050,1.086,0.527,-0.02
4/28/2023 17:43:25.060,1.184,0.438,-0.086
4/28/2023 17:43:25.070,1.254,0.352,-0.125
4/28/2023 17:43:25.080,1.242,0.301,-0.117
4/28/2023 17:43:25.090,1.156,0.293,-0.082
4/28/2023 17:43:25.100,1.047,0.297,-0.031
4/28/2023 17:43:25.110,0.957,0.305,0.023
4/28/2023 17:43:25.120,0.883,0.305,0.063
4/28/2023 17:43:25.130,0.797,0.305,0.094
4/28/2023 17:43:25.140,0.727,0.305,0.109
4/28/2023 17:43:25.150,0.656,0.305,0.105
4/28/2023 17:43:25.160,0.605,0.309,0.102
4/28/2023 17:43:25.170,0.57,0.324,0.09
4/28/2023 17:43:25.180,0.551,0.332,0.082
4/28/2023 17:43:25.190,0.539,0.348,0.078
4/28/2023 17:43:25.200,0.527,0.363,0.078
4/28/2023 17:43:25.210,0.523,0.344,0.078
4/28/2023 17:43:25.220,0.516,0.309,0.082
4/28/2023 17:43:25.230,0.512,0.266,0.082
4/28/2023 17:43:25.240,0.508,0.238,0.074
4/28/2023 17:43:25.250,0.508,0.227,0.066
4/28/2023 17:43:25.260,0.52,0.227,0.066
4/28/2023 17:43:25.270,0.57,0.23,0.066
4/28/2023 17:43:25.280,0.633,0.238,0.055
4/28/2023 17:43:25.290,0.684,0.242,0.047
4/28/2023 17:43:25.300,0.723,0.246,0.035
4/28/2023 17:43:25.310,0.746,0.258,0.012
4/28/2023 17:43:25.320,0.77,0.266,0
4/28/2023 17:43:25.330,0.809,0.27,-0.004
4/28/2023 17:43:25.340,0.891,0.27,-0.012
4/28/2023 17:43:25.350,1,0.27,-0.023
4/28/2023 17:43:25.360,1.137,0.285,-0.031
4/28/2023 17:43:25.370,1.27,0.313,-0.035
4/28/2023 17:43:25.380,1.363,0.324,-0.031
4/28/2023 17:43:25.390,1.402,0.328,-0.016
4/28/2023 17:43:25.400,1.359,0.328,0.004
4/28/2023 17:43:25.410,1.254,0.309,0.023
4/28/2023 17:43:25.420,1.191,0.281,-0.012
4/28/2023 17:43:25.430,1.281,0.273,-0.098
4/28/2023 17:43:25.440,1.453,0.313,-0.152
4/28/2023 17:43:25.450,1.551,0.352,-0.129
4/28/2023 17:43:25.460,1.488,0.375,-0.07
4/28/2023 17:43:25.470,1.301,0.406,-0.016
4/28/2023 17:43:25.480,1.086,0.473,0.023
4/28/2023 17:43:25.490,0.945,0.523,0.055
4/28/2023 17:43:25.500,0.914,0.535,0.07
4/28/2023 17:43:25.510,1.012,0.484,0.066
4/28/2023 17:43:25.520,1.188,0.426,0.031
4/28/2023 17:43:25.530,1.375,0.375,0.008
4/28/2023 17:43:25.540,1.5,0.34,-0.004
4/28/2023 17:43:25.550,1.496,0.293,-0.004
4/28/2023 17:43:25.560,1.336,0.238,0.012
4/28/2023 17:43:25.570,1.125,0.211,0.035
4/28/2023 17:43:25.580,0.934,0.188,0.07
4/28/2023 17:43:25.590,0.785,0.164,0.113
4/28/2023 17:43:25.600,0.672,0.156,0.137
4/28/2023 17:43:25.610,0.621,0.168,0.148
4/28/2023 17:43:25.620,0.621,0.191,0.16
4/28/2023 17:43:25.630,0.613,0.199,0.152
4/28/2023 17:43:25.640,0.59,0.195,0.137
4/28/2023 17:43:25.650,0.559,0.18,0.125
4/28/2023 17:43:25.660,0.516,0.172,0.121
4/28/2023 17:43:25.670,0.484,0.184,0.125
4/28/2023 17:43:25.680,0.48,0.203,0.133
4/28/2023 17:43:25.690,0.484,0.219,0.152
4/28/2023 17:43:25.700,0.492,0.211,0.172
4/28/2023 17:43:25.710,0.488,0.203,0.184
4/28/2023 17:43:25.720,0.504,0.207,0.188
4/28/2023 17:43:25.730,0.543,0.23,0.184
4/28/2023 17:43:25.740,0.594,0.258,0.184
4/28/2023 17:43:25.750,0.652,0.285,0.191
4/28/2023 17:43:25.760,0.715,0.316,0.211
4/28/2023 17:43:25.770,0.762,0.367,0.234
4/28/2023 17:43:25.780,0.816,0.414,0.246
4/28/2023 17:43:25.790,0.879,0.445,0.223
4/28/2023 17:43:25.800,0.957,0.449,0.168
4/28/2023 17:43:25.810,1.063,0.43,0.098
4/28/2023 17:43:25.820,1.195,0.398,0.039
4/28/2023 17:43:25.830,1.309,0.363,0
4/28/2023 17:43:25.840,1.387,0.352,-0.008
4/28/2023 17:43:25.850,1.395,0.387,0.012
4/28/2023 17:43:25.860,1.344,0.441,0.043
4/28/2023 17:43:25.870,1.254,0.492,0.074
4/28/2023 17:43:25.880,1.215,0.516,0.074
4/28/2023 17:43:25.890,1.328,0.551,0.051
4/28/2023 17:43:25.900,1.52,0.602,0.039
4/28/2023 17:43:25.910,1.637,0.641,0.047
4/28/2023 17:43:25.920,1.598,0.66,0.059
4/28/2023 17:43:25.930,1.426,0.66,0.063
4/28/2023 17:43:25.940,1.25,0.633,0.039
4/28/2023 17:43:25.950,1.145,0.57,0.008
4/28/2023 17:43:25.960,1.113,0.48,-0.031
4/28/2023 17:43:25.970,1.133,0.402,-0.055
4/28/2023 17:43:25.980,1.195,0.355,-0.07
4/28/2023 17:43:25.990,1.266,0.324,-0.078
4/28/2023 17:43:26.000,1.281,0.293,-0.07
4/28/2023 17:43:26.010,1.234,0.27,-0.063
4/28/2023 17:43:26.020,1.137,0.27,-0.063
4/28/2023 17:43:26.030,1.023,0.277,-0.055
4/28/2023 17:43:26.040,0.914,0.293,-0.035
4/28/2023 17:43:26.050,0.816,0.309,-0.004
4/28/2023 17:43:26.060,0.727,0.324,0.02
4/28/2023 17:43:26.070,0.641,0.328,0.047
4/28/2023 17:43:26.080,0.566,0.313,0.059
4/28/2023 17:43:26.090,0.496,0.285,0.063
4/28/2023 17:43:26.100,0.449,0.27,0.063
4/28/2023 17:43:26.110,0.418,0.258,0.063
4/28/2023 17:43:26.120,0.41,0.254,0.063
4/28/2023 17:43:26.130,0.418,0.254,0.063
4/28/2023 17:43:26.140,0.434,0.246,0.066
4/28/2023 17:43:26.150,0.449,0.234,0.063
4/28/2023 17:43:26.160,0.473,0.238,0.055
4/28/2023 17:43:26.170,0.5,0.254,0.047
4/28/2023 17:43:26.180,0.531,0.258,0.035
4/28/2023 17:43:26.190,0.563,0.254,0.031
4/28/2023 17:43:26.200,0.594,0.25,0.027
4/28/2023 17:43:26.210,0.637,0.25,0.031
4/28/2023 17:43:26.220,0.676,0.25,0.027
4/28/2023 17:43:26.230,0.719,0.262,0.031
4/28/2023 17:43:26.240,0.762,0.266,0.035
4/28/2023 17:43:26.250,0.805,0.27,0.039
4/28/2023 17:43:26.260,0.859,0.277,0.039
4/28/2023 17:43:26.270,0.93,0.293,0.027
4/28/2023 17:43:26.280,1.02,0.289,0
4/28/2023 17:43:26.290,1.129,0.277,-0.035
4/28/2023 17:43:26.300,1.242,0.266,-0.066
4/28/2023 17:43:26.310,1.34,0.258,-0.094
4/28/2023 17:43:26.320,1.398,0.258,-0.113
4/28/2023 17:43:26.330,1.395,0.266,-0.105
4/28/2023 17:43:26.340,1.32,0.27,-0.074
4/28/2023 17:43:26.350,1.23,0.27,-0.047
4/28/2023 17:43:26.360,1.238,0.254,-0.074
4/28/2023 17:43:26.370,1.398,0.262,-0.117
4/28/2023 17:43:26.380,1.566,0.293,-0.148
4/28/2023 17:43:26.390,1.637,0.328,-0.145
4/28/2023 17:43:26.400,1.551,0.355,-0.121
4/28/2023 17:43:26.410,1.367,0.383,-0.086
4/28/2023 17:43:26.420,1.156,0.414,-0.031
4/28/2023 17:43:26.430,1,0.453,0.023
4/28/2023 17:43:26.440,0.949,0.465,0.051
4/28/2023 17:43:26.450,1.02,0.426,0.055
4/28/2023 17:43:26.460,1.172,0.363,0.055
4/28/2023 17:43:26.470,1.34,0.313,0.051
4/28/2023 17:43:26.480,1.438,0.285,0.043
4/28/2023 17:43:26.490,1.414,0.25,0.035
4/28/2023 17:43:26.500,1.254,0.195,0.031
4/28/2023 17:43:26.510,1.066,0.16,0.039
4/28/2023 17:43:26.520,0.891,0.156,0.059
4/28/2023 17:43:26.530,0.754,0.148,0.102
4/28/2023 17:43:26.540,0.645,0.145,0.141
4/28/2023 17:43:26.550,0.555,0.172,0.16
4/28/2023 17:43:26.560,0.516,0.203,0.176
4/28/2023 17:43:26.570,0.492,0.203,0.188
4/28/2023 17:43:26.580,0.469,0.199,0.184
4/28/2023 17:43:26.590,0.461,0.199,0.176
4/28/2023 17:43:26.600,0.461,0.207,0.168
4/28/2023 17:43:26.610,0.453,0.234,0.156
4/28/2023 17:43:26.620,0.449,0.246,0.148
4/28/2023 17:43:26.630,0.453,0.238,0.141
4/28/2023 17:43:26.640,0.473,0.23,0.137
4/28/2023 17:43:26.650,0.512,0.238,0.145
4/28/2023 17:43:26.660,0.563,0.266,0.168
4/28/2023 17:43:26.670,0.617,0.289,0.191
4/28/2023 17:43:26.680,0.684,0.309,0.203
4/28/2023 17:43:26.690,0.75,0.332,0.199
4/28/2023 17:43:26.700,0.801,0.355,0.191
4/28/2023 17:43:26.710,0.836,0.367,0.168
4/28/2023 17:43:26.720,0.875,0.375,0.129
4/28/2023 17:43:26.730,0.922,0.367,0.086
4/28/2023 17:43:26.740,0.992,0.367,0.039
4/28/2023 17:43:26.750,1.09,0.367,0.02
4/28/2023 17:43:26.760,1.199,0.383,0.004
4/28/2023 17:43:26.770,1.309,0.418,0.004
4/28/2023 17:43:26.780,1.395,0.449,0.012
4/28/2023 17:43:26.790,1.422,0.473,0.023
4/28/2023 17:43:26.800,1.379,0.48,0.023
4/28/2023 17:43:26.810,1.266,0.465,-0.012
4/28/2023 17:43:26.820,1.188,0.426,-0.074
4/28/2023 17:43:26.830,1.273,0.441,-0.102
4/28/2023 17:43:26.840,1.457,0.512,-0.074
4/28/2023 17:43:26.850,1.559,0.574,-0.027
4/28/2023 17:43:26.860,1.508,0.598,0.016
4/28/2023 17:43:26.870,1.359,0.598,0.039
4/28/2023 17:43:26.880,1.227,0.602,0.027
4/28/2023 17:43:26.890,1.16,0.59,-0.012
4/28/2023 17:43:26.900,1.145,0.512,-0.063
4/28/2023 17:43:26.910,1.168,0.391,-0.113
4/28/2023 17:43:26.920,1.227,0.305,-0.148
4/28/2023 17:43:26.930,1.301,0.258,-0.164
4/28/2023 17:43:26.940,1.336,0.238,-0.148
4/28/2023 17:43:26.950,1.301,0.227,-0.113
4/28/2023 17:43:26.960,1.191,0.23,-0.086
4/28/2023 17:43:26.970,1.043,0.242,-0.055
4/28/2023 17:43:26.980,0.898,0.262,-0.031
4/28/2023 17:43:26.990,0.777,0.277,0.004
4/28/2023 17:43:27.000,0.684,0.289,0.027
4/28/2023 17:43:27.010,0.621,0.281,0.047
4/28/2023 17:43:27.020,0.586,0.289,0.047
4/28/2023 17:43:27.030,0.574,0.281,0.039
4/28/2023 17:43:27.040,0.566,0.277,0.035
4/28/2023 17:43:27.050,0.551,0.27,0.031
4/28/2023 17:43:27.060,0.531,0.254,0.035
4/28/2023 17:43:27.070,0.504,0.23,0.051
4/28/2023 17:43:27.080,0.48,0.211,0.063
4/28/2023 17:43:27.090,0.477,0.219,0.07
4/28/2023 17:43:27.100,0.484,0.234,0.094
4/28/2023 17:43:27.110,0.496,0.25,0.105
4/28/2023 17:43:27.120,0.52,0.27,0.117
4/28/2023 17:43:27.130,0.559,0.277,0.129
4/28/2023 17:43:27.140,0.617,0.273,0.125
4/28/2023 17:43:27.150,0.684,0.266,0.113
4/28/2023 17:43:27.160,0.73,0.254,0.086
4/28/2023 17:43:27.170,0.758,0.234,0.07
4/28/2023 17:43:27.180,0.766,0.215,0.059
4/28/2023 17:43:27.190,0.773,0.207,0.063
4/28/2023 17:43:27.200,0.797,0.207,0.063
4/28/2023 17:43:27.210,0.855,0.199,0.059
4/28/2023 17:43:27.220,0.957,0.203,0.051
4/28/2023 17:43:27.230,1.078,0.223,0.035
4/28/2023 17:43:27.240,1.203,0.246,0.012
4/28/2023 17:43:27.250,1.289,0.258,-0.016
4/28/2023 17:43:27.260,1.34,0.266,-0.047
4/28/2023 17:43:27.270,1.352,0.277,-0.07
4/28/2023 17:43:27.280,1.313,0.293,-0.074
4/28/2023 17:43:27.290,1.219,0.273,-0.074
4/28/2023 17:43:27.300,1.16,0.227,-0.102
4/28/2023 17:43:27.310,1.277,0.23,-0.145
4/28/2023 17:43:27.320,1.492,0.285,-0.168
4/28/2023 17:43:27.330,1.625,0.352,-0.176
4/28/2023 17:43:27.340,1.57,0.355,-0.168
4/28/2023 17:43:27.350,1.359,0.336,-0.156
4/28/2023 17:43:27.360,1.113,0.355,-0.137
4/28/2023 17:43:27.370,0.938,0.402,-0.105
4/28/2023 17:43:27.380,0.891,0.438,-0.078
4/28/2023 17:43:27.390,1.008,0.434,-0.074
4/28/2023 17:43:27.400,1.234,0.391,-0.07
4/28/2023 17:43:27.410,1.449,0.332,-0.074
4/28/2023 17:43:27.420,1.547,0.293,-0.09
4/28/2023 17:43:27.430,1.488,0.242,-0.098
4/28/2023 17:43:27.440,1.301,0.184,-0.105
4/28/2023 17:43:27.450,1.078,0.148,-0.09
4/28/2023 17:43:27.460,0.902,0.129,-0.051
4/28/2023 17:43:27.470,0.777,0.121,0.004
4/28/2023 17:43:27.480,0.695,0.113,0.055
4/28/2023 17:43:27.490,0.641,0.105,0.102
4/28/2023 17:43:27.500,0.609,0.145,0.129
4/28/2023 17:43:27.510,0.59,0.18,0.133
4/28/2023 17:43:27.520,0.559,0.191,0.117
4/28/2023 17:43:27.530,0.52,0.195,0.109
4/28/2023 17:43:27.540,0.488,0.203,0.102
4/28/2023 17:43:27.550,0.469,0.219,0.102
4/28/2023 17:43:27.560,0.473,0.254,0.105
4/28/2023 17:43:27.570,0.484,0.273,0.125
4/28/2023 17:43:27.580,0.512,0.285,0.145
4/28/2023 17:43:27.590,0.539,0.301,0.168
4/28/2023 17:43:27.600,0.563,0.32,0.191
4/28/2023 17:43:27.610,0.605,0.352,0.207
4/28/2023 17:43:27.620,0.641,0.363,0.215
4/28/2023 17:43:27.630,0.684,0.371,0.227
4/28/2023 17:43:27.640,0.711,0.375,0.238
4/28/2023 17:43:27.650,0.734,0.367,0.234
4/28/2023 17:43:27.660,0.766,0.355,0.223
4/28/2023 17:43:27.670,0.816,0.34,0.203
4/28/2023 17:43:27.680,0.891,0.32,0.176
4/28/2023 17:43:27.690,0.992,0.313,0.133
4/28/2023 17:43:27.700,1.105,0.32,0.094
4/28/2023 17:43:27.710,1.223,0.344,0.063
4/28/2023 17:43:27.720,1.32,0.375,0.043
4/28/2023 17:43:27.730,1.391,0.406,0.039
4/28/2023 17:43:27.740,1.43,0.434,0.035
4/28/2023 17:43:27.750,1.418,0.441,0.035
4/28/2023 17:43:27.760,1.363,0.414,0.008
4/28/2023 17:43:27.770,1.336,0.379,-0.035
4/28/2023 17:43:27.780,1.457,0.43,-0.027
4/28/2023 17:43:27.790,1.664,0.523,0.008
4/28/2023 17:43:27.800,1.758,0.594,0.031
4/28/2023 17:43:27.810,1.656,0.609,0.055
4/28/2023 17:43:27.820,1.426,0.578,0.035
4/28/2023 17:43:27.830,1.203,0.559,-0.012
4/28/2023 17:43:27.840,1.082,0.535,-0.059
4/28/2023 17:43:27.850,1.07,0.488,-0.094
4/28/2023 17:43:27.860,1.137,0.426,-0.117
4/28/2023 17:43:27.870,1.23,0.363,-0.125
4/28/2023 17:43:27.880,1.297,0.313,-0.117
4/28/2023 17:43:27.890,1.281,0.281,-0.105
4/28/2023 17:43:27.900,1.199,0.262,-0.098
4/28/2023 17:43:27.910,1.086,0.246,-0.086
4/28/2023 17:43:27.920,0.973,0.246,-0.066
4/28/2023 17:43:27.930,0.871,0.254,-0.031
4/28/2023 17:43:27.940,0.773,0.258,0
4/28/2023 17:43:27.950,0.672,0.246,0.02
4/28/2023 17:43:27.960,0.578,0.234,0.023
4/28/2023 17:43:27.970,0.516,0.23,0.008
4/28/2023 17:43:27.980,0.512,0.246,0.016
4/28/2023 17:43:27.990,0.551,0.277,0.027
4/28/2023 17:43:28.000,0.57,0.27,0.027
4/28/2023 17:43:28.010,0.574,0.27,0.031
4/28/2023 17:43:28.020,0.555,0.273,0.031
4/28/2023 17:43:28.030,0.531,0.258,0.031
4/28/2023 17:43:28.040,0.516,0.254,0.043
4/28/2023 17:43:28.050,0.5,0.258,0.055
4/28/2023 17:43:28.060,0.496,0.266,0.063
4/28/2023 17:43:28.070,0.492,0.266,0.066
4/28/2023 17:43:28.080,0.512,0.258,0.066
4/28/2023 17:43:28.090,0.555,0.254,0.066
4/28/2023 17:43:28.100,0.617,0.25,0.051
4/28/2023 17:43:28.110,0.68,0.25,0.031
4/28/2023 17:43:28.120,0.734,0.258,0.016
4/28/2023 17:43:28.130,0.785,0.27,0.004
4/28/2023 17:43:28.140,0.836,0.258,0.004
4/28/2023 17:43:28.150,0.879,0.25,0
4/28/2023 17:43:28.160,0.926,0.266,0.004
4/28/2023 17:43:28.170,0.984,0.305,0.004
4/28/2023 17:43:28.180,1.082,0.336,0
4/28/2023 17:43:28.190,1.207,0.348,-0.023
4/28/2023 17:43:28.200,1.324,0.332,-0.063
4/28/2023 17:43:28.210,1.398,0.301,-0.105
4/28/2023 17:43:28.220,1.418,0.281,-0.129
4/28/2023 17:43:28.230,1.395,0.289,-0.113
4/28/2023 17:43:28.240,1.32,0.309,-0.051
4/28/2023 17:43:28.250,1.223,0.301,0.02
4/28/2023 17:43:28.260,1.184,0.246,0.027
4/28/2023 17:43:28.270,1.293,0.219,-0.035
4/28/2023 17:43:28.280,1.453,0.227,-0.105
4/28/2023 17:43:28.290,1.52,0.242,-0.152
4/28/2023 17:43:28.300,1.453,0.258,-0.172
4/28/2023 17:43:28.310,1.281,0.297,-0.172
4/28/2023 17:43:28.320,1.102,0.363,-0.137
4/28/2023 17:43:28.330,0.977,0.434,-0.066
4/28/2023 17:43:28.340,0.934,0.477,0
4/28/2023 17:43:28.350,0.98,0.484,0.051
4/28/2023 17:43:28.360,1.094,0.449,0.074
4/28/2023 17:43:28.370,1.254,0.43,0.082
4/28/2023 17:43:28.380,1.359,0.406,0.078
4/28/2023 17:43:28.390,1.34,0.344,0.059
4/28/2023 17:43:28.400,1.207,0.27,0.039
4/28/2023 17:43:28.410,1.043,0.203,0.035
4/28/2023 17:43:28.420,0.895,0.156,0.051
4/28/2023 17:43:28.430,0.773,0.129,0.082
4/28/2023 17:43:28.440,0.68,0.102,0.117
4/28/2023 17:43:28.450,0.602,0.109,0.133
4/28/2023 17:43:28.460,0.543,0.148,0.133
4/28/2023 17:43:28.470,0.523,0.195,0.145
4/28/2023 17:43:28.480,0.516,0.203,0.137
4/28/2023 17:43:28.490,0.508,0.188,0.117
4/28/2023 17:43:28.500,0.492,0.188,0.102
4/28/2023 17:43:28.510,0.492,0.195,0.102
4/28/2023 17:43:28.520,0.48,0.219,0.105
4/28/2023 17:43:28.530,0.484,0.25,0.125
4/28/2023 17:43:28.540,0.488,0.285,0.148
4/28/2023 17:43:28.550,0.512,0.301,0.176
4/28/2023 17:43:28.560,0.539,0.301,0.191
4/28/2023 17:43:28.570,0.566,0.293,0.195
4/28/2023 17:43:28.580,0.598,0.301,0.199
4/28/2023 17:43:28.590,0.633,0.313,0.191
4/28/2023 17:43:28.600,0.691,0.316,0.184
4/28/2023 17:43:28.610,0.754,0.32,0.172
4/28/2023 17:43:28.620,0.824,0.328,0.152
4/28/2023 17:43:28.630,0.902,0.336,0.121
4/28/2023 17:43:28.640,0.973,0.336,0.09
4/28/2023 17:43:28.650,1.059,0.34,0.066
4/28/2023 17:43:28.660,1.152,0.355,0.043
4/28/2023 17:43:28.670,1.242,0.371,0.031
4/28/2023 17:43:28.680,1.332,0.379,0.031
4/28/2023 17:43:28.690,1.387,0.398,0.027
4/28/2023 17:43:28.700,1.398,0.418,0.027
4/28/2023 17:43:28.710,1.34,0.43,0.016
4/28/2023 17:43:28.720,1.262,0.426,-0.023
4/28/2023 17:43:28.730,1.301,0.449,-0.047
4/28/2023 17:43:28.740,1.434,0.508,-0.016
4/28/2023 17:43:28.750,1.516,0.566,0.047
4/28/2023 17:43:28.760,1.473,0.617,0.109
4/28/2023 17:43:28.770,1.332,0.633,0.141
4/28/2023 17:43:28.780,1.184,0.633,0.129
4/28/2023 17:43:28.790,1.094,0.605,0.094
4/28/2023 17:43:28.800,1.082,0.555,0.035
4/28/2023 17:43:28.810,1.129,0.496,-0.027
4/28/2023 17:43:28.820,1.227,0.438,-0.086
4/28/2023 17:43:28.830,1.332,0.379,-0.113
4/28/2023 17:43:28.840,1.395,0.328,-0.125
4/28/2023 17:43:28.850,1.371,0.297,-0.105
4/28/2023 17:43:28.860,1.273,0.293,-0.086
4/28/2023 17:43:28.870,1.156,0.305,-0.063
4/28/2023 17:43:28.880,1.043,0.332,-0.043
4/28/2023 17:43:28.890,0.949,0.359,-0.016
4/28/2023 17:43:28.900,0.871,0.379,0.016
4/28/2023 17:43:28.910,0.809,0.383,0.047
4/28/2023 17:43:28.920,0.73,0.367,0.066
4/28/2023 17:43:28.930,0.68,0.348,0.078
4/28/2023 17:43:28.940,0.645,0.348,0.082
4/28/2023 17:43:28.950,0.605,0.344,0.078
4/28/2023 17:43:28.960,0.57,0.32,0.07
4/28/2023 17:43:28.970,0.535,0.293,0.066
4/28/2023 17:43:28.980,0.508,0.266,0.063
4/28/2023 17:43:28.990,0.496,0.242,0.059
4/28/2023 17:43:29.000,0.484,0.242,0.063
4/28/2023 17:43:29.010,0.504,0.246,0.07
4/28/2023 17:43:29.020,0.516,0.262,0.082
4/28/2023 17:43:29.030,0.531,0.266,0.094
4/28/2023 17:43:29.040,0.543,0.266,0.102
4/28/2023 17:43:29.050,0.555,0.258,0.098
4/28/2023 17:43:29.060,0.582,0.262,0.094
4/28/2023 17:43:29.070,0.621,0.266,0.082
4/28/2023 17:43:29.080,0.676,0.27,0.07
4/28/2023 17:43:29.090,0.742,0.277,0.063
4/28/2023 17:43:29.100,0.805,0.285,0.051
4/28/2023 17:43:29.110,0.859,0.285,0.043
4/28/2023 17:43:29.120,0.926,0.297,0.031
4/28/2023 17:43:29.130,1.012,0.301,0.012
4/28/2023 17:43:29.140,1.109,0.301,0
4/28/2023 17:43:29.150,1.211,0.293,-0.027
4/28/2023 17:43:29.160,1.293,0.297,-0.055
4/28/2023 17:43:29.170,1.34,0.297,-0.066
