------------ Data File Created By ActiGraph GT3X+ ActiLife v6.13.4 Firmware v1.7.2 date format M/d/yyyy at 100 Hz  Filter Normal -----------
Serial Number: TAS1H50200818
Start Time 11:46:00
Start Date 3/31/2023
Epoch Period (hh:mm:ss) 00:00:00
Download Time 12:00:32
Download Date 3/31/2023
Current Memory Address: 0
Current Battery Voltage: 4.2     Mode = 12
--------------------------------------------------
Timestamp,Accelerometer X,Accelerometer Y,Accelerometer Z
3/31/2023 11:46:00.000,0.883,0.422,0.125
3/31/2023 11:46:00.010,0.902,0.418,0.121
3/31/2023 11:46:00.020,0.91,0.426,0.109
3/31/2023 11:46:00.030,0.902,0.422,0.105
3/31/2023 11:46:00.040,0.871,0.418,0.102
3/31/2023 11:46:00.050,0.824,0.418,0.098
3/31/2023 11:46:00.060,0.781,0.414,0.102
3/31/2023 11:46:00.070,0.75,0.414,0.105
3/31/2023 11:46:00.080,0.73,0.414,0.105
3/31/2023 11:46:00.090,0.715,0.414,0.113
3/31/2023 11:46:00.100,0.707,0.43,0.113
3/31/2023 11:46:00.110,0.699,0.441,0.113
3/31/2023 11:46:00.120,0.684,0.445,0.109
3/31/2023 11:46:00.130,0.672,0.441,0.098
3/31/2023 11:46:00.140,0.656,0.438,0.09
3/31/2023 11:46:00.150,0.641,0.434,0.074
3/31/2023 11:46:00.160,0.637,0.43,0.059
3/31/2023 11:46:00.170,0.645,0.426,0.043
3/31/2023 11:46:00.180,0.66,0.422,0.031
3/31/2023 11:46:00.190,0.672,0.41,0.02
3/31/2023 11:46:00.200,0.691,0.398,0.016
3/31/2023 11:46:00.210,0.707,0.387,0.016
3/31/2023 11:46:00.220,0.723,0.383,0.023
3/31/2023 11:46:00.230,0.746,0.391,0.031
3/31/2023 11:46:00.240,0.77,0.398,0.039
3/31/2023 11:46:00.250,0.789,0.395,0.051
3/31/2023 11:46:00.260,0.832,0.398,0.066
3/31/2023 11:46:00.270,0.922,0.414,0.07
3/31/2023 11:46:00.280,1.039,0.422,0.063
3/31/2023 11:46:00.290,1.184,0.438,0.055
3/31/2023 11:46:00.300,1.324,0.434,0.055
3/31/2023 11:46:00.310,1.418,0.43,0.074
3/31/2023 11:46:00.320,1.445,0.418,0.082
3/31/2023 11:46:00.330,1.402,0.395,0.078
3/31/2023 11:46:00.340,1.328,0.348,0.051
3/31/2023 11:46:00.350,1.25,0.285,0.016
3/31/2023 11:46:00.360,1.207,0.223,-0.02
3/31/2023 11:46:00.370,1.246,0.18,-0.059
3/31/2023 11:46:00.380,1.352,0.184,-0.078
3/31/2023 11:46:00.390,1.457,0.238,-0.059
3/31/2023 11:46:00.400,1.484,0.32,-0.02
3/31/2023 11:46:00.410,1.402,0.402,0.059
3/31/2023 11:46:00.420,1.254,0.469,0.133
3/31/2023 11:46:00.430,1.102,0.523,0.184
3/31/2023 11:46:00.440,0.977,0.547,0.199
3/31/2023 11:46:00.450,0.906,0.535,0.18
3/31/2023 11:46:00.460,0.898,0.477,0.148
3/31/2023 11:46:00.470,0.934,0.379,0.121
3/31/2023 11:46:00.480,0.977,0.285,0.086
3/31/2023 11:46:00.490,1.016,0.215,0.055
3/31/2023 11:46:00.500,1.031,0.18,0.035
3/31/2023 11:46:00.510,1.035,0.191,0.035
3/31/2023 11:46:00.520,1,0.223,0.043
3/31/2023 11:46:00.530,0.938,0.262,0.07
3/31/2023 11:46:00.540,0.871,0.285,0.113
3/31/2023 11:46:00.550,0.809,0.285,0.148
3/31/2023 11:46:00.560,0.742,0.281,0.164
3/31/2023 11:46:00.570,0.68,0.289,0.16
3/31/2023 11:46:00.580,0.617,0.309,0.133
3/31/2023 11:46:00.590,0.559,0.32,0.105
3/31/2023 11:46:00.600,0.508,0.332,0.086
3/31/2023 11:46:00.610,0.469,0.336,0.074
3/31/2023 11:46:00.620,0.457,0.332,0.07
3/31/2023 11:46:00.630,0.461,0.348,0.082
3/31/2023 11:46:00.640,0.469,0.363,0.102
3/31/2023 11:46:00.650,0.484,0.391,0.121
3/31/2023 11:46:00.660,0.504,0.41,0.133
3/31/2023 11:46:00.670,0.531,0.426,0.133
3/31/2023 11:46:00.680,0.551,0.434,0.137
3/31/2023 11:46:00.690,0.578,0.438,0.137
3/31/2023 11:46:00.700,0.605,0.461,0.156
3/31/2023 11:46:00.710,0.621,0.484,0.184
3/31/2023 11:46:00.720,0.629,0.508,0.215
3/31/2023 11:46:00.730,0.652,0.523,0.234
3/31/2023 11:46:00.740,0.691,0.52,0.23
3/31/2023 11:46:00.750,0.746,0.512,0.227
3/31/2023 11:46:00.760,0.82,0.496,0.207
3/31/2023 11:46:00.770,0.914,0.496,0.188
3/31/2023 11:46:00.780,1.016,0.504,0.168
3/31/2023 11:46:00.790,1.098,0.531,0.164
3/31/2023 11:46:00.800,1.152,0.57,0.16
3/31/2023 11:46:00.810,1.18,0.609,0.168
3/31/2023 11:46:00.820,1.191,0.633,0.16
3/31/2023 11:46:00.830,1.199,0.641,0.145
3/31/2023 11:46:00.840,1.219,0.637,0.121
3/31/2023 11:46:00.850,1.262,0.641,0.094
3/31/2023 11:46:00.860,1.332,0.656,0.074
3/31/2023 11:46:00.870,1.402,0.699,0.078
3/31/2023 11:46:00.880,1.434,0.754,0.113
3/31/2023 11:46:00.890,1.379,0.813,0.18
3/31/2023 11:46:00.900,1.262,0.844,0.223
3/31/2023 11:46:00.910,1.129,0.828,0.242
3/31/2023 11:46:00.920,1.051,0.781,0.215
3/31/2023 11:46:00.930,1.023,0.707,0.16
3/31/2023 11:46:00.940,1.047,0.625,0.098
3/31/2023 11:46:00.950,1.07,0.539,0.039
3/31/2023 11:46:00.960,1.082,0.465,-0.012
3/31/2023 11:46:00.970,1.07,0.426,-0.027
3/31/2023 11:46:00.980,1.055,0.41,-0.02
3/31/2023 11:46:00.990,1.02,0.422,0.004
3/31/2023 11:46:01.000,0.961,0.449,0.043
3/31/2023 11:46:01.010,0.91,0.449,0.082
3/31/2023 11:46:01.020,0.852,0.441,0.105
3/31/2023 11:46:01.030,0.789,0.422,0.121
3/31/2023 11:46:01.040,0.742,0.406,0.121
3/31/2023 11:46:01.050,0.691,0.406,0.105
3/31/2023 11:46:01.060,0.648,0.41,0.078
3/31/2023 11:46:01.070,0.621,0.422,0.059
3/31/2023 11:46:01.080,0.609,0.438,0.047
3/31/2023 11:46:01.090,0.609,0.445,0.039
3/31/2023 11:46:01.100,0.598,0.449,0.035
3/31/2023 11:46:01.110,0.594,0.449,0.031
3/31/2023 11:46:01.120,0.59,0.453,0.023
3/31/2023 11:46:01.130,0.578,0.453,0.023
3/31/2023 11:46:01.140,0.566,0.449,0.027
3/31/2023 11:46:01.150,0.559,0.434,0.027
3/31/2023 11:46:01.160,0.555,0.41,0.031
3/31/2023 11:46:01.170,0.563,0.383,0.035
3/31/2023 11:46:01.180,0.582,0.363,0.047
3/31/2023 11:46:01.190,0.613,0.355,0.055
3/31/2023 11:46:01.200,0.652,0.359,0.059
3/31/2023 11:46:01.210,0.695,0.355,0.063
3/31/2023 11:46:01.220,0.73,0.344,0.055
3/31/2023 11:46:01.230,0.758,0.324,0.047
3/31/2023 11:46:01.240,0.793,0.324,0.043
3/31/2023 11:46:01.250,0.844,0.332,0.035
3/31/2023 11:46:01.260,0.926,0.363,0.031
3/31/2023 11:46:01.270,1.035,0.406,0.035
3/31/2023 11:46:01.280,1.191,0.434,0.047
3/31/2023 11:46:01.290,1.344,0.438,0.047
3/31/2023 11:46:01.300,1.438,0.418,0.047
3/31/2023 11:46:01.310,1.438,0.375,0.051
3/31/2023 11:46:01.320,1.328,0.316,0.035
3/31/2023 11:46:01.330,1.18,0.27,0.016
3/31/2023 11:46:01.340,1.121,0.281,0.008
3/31/2023 11:46:01.350,1.246,0.352,0.016
3/31/2023 11:46:01.360,1.469,0.453,0.023
3/31/2023 11:46:01.370,1.645,0.523,0.035
3/31/2023 11:46:01.380,1.648,0.52,0.055
3/31/2023 11:46:01.390,1.457,0.469,0.082
3/31/2023 11:46:01.400,1.172,0.41,0.102
3/31/2023 11:46:01.410,0.918,0.391,0.125
3/31/2023 11:46:01.420,0.781,0.438,0.137
3/31/2023 11:46:01.430,0.805,0.516,0.133
3/31/2023 11:46:01.440,0.949,0.559,0.137
3/31/2023 11:46:01.450,1.148,0.551,0.152
3/31/2023 11:46:01.460,1.301,0.488,0.156
3/31/2023 11:46:01.470,1.363,0.402,0.148
3/31/2023 11:46:01.480,1.305,0.332,0.141
3/31/2023 11:46:01.490,1.16,0.273,0.133
3/31/2023 11:46:01.500,0.977,0.215,0.137
3/31/2023 11:46:01.510,0.828,0.18,0.164
3/31/2023 11:46:01.520,0.699,0.164,0.199
3/31/2023 11:46:01.530,0.625,0.16,0.234
3/31/2023 11:46:01.540,0.578,0.184,0.25
3/31/2023 11:46:01.550,0.555,0.246,0.234
3/31/2023 11:46:01.560,0.531,0.305,0.211
3/31/2023 11:46:01.570,0.523,0.336,0.191
3/31/2023 11:46:01.580,0.523,0.328,0.195
3/31/2023 11:46:01.590,0.523,0.289,0.211
3/31/2023 11:46:01.600,0.535,0.242,0.215
3/31/2023 11:46:01.610,0.543,0.23,0.195
3/31/2023 11:46:01.620,0.551,0.266,0.18
3/31/2023 11:46:01.630,0.543,0.316,0.176
3/31/2023 11:46:01.640,0.543,0.371,0.18
3/31/2023 11:46:01.650,0.555,0.426,0.191
3/31/2023 11:46:01.660,0.59,0.457,0.207
3/31/2023 11:46:01.670,0.637,0.473,0.215
3/31/2023 11:46:01.680,0.68,0.469,0.23
3/31/2023 11:46:01.690,0.699,0.461,0.234
3/31/2023 11:46:01.700,0.711,0.441,0.234
3/31/2023 11:46:01.710,0.73,0.422,0.227
3/31/2023 11:46:01.720,0.785,0.395,0.219
3/31/2023 11:46:01.730,0.871,0.387,0.199
3/31/2023 11:46:01.740,0.996,0.406,0.164
3/31/2023 11:46:01.750,1.137,0.441,0.125
3/31/2023 11:46:01.760,1.258,0.461,0.109
3/31/2023 11:46:01.770,1.316,0.457,0.121
3/31/2023 11:46:01.780,1.277,0.457,0.137
3/31/2023 11:46:01.790,1.172,0.453,0.148
3/31/2023 11:46:01.800,1.066,0.484,0.141
3/31/2023 11:46:01.810,1.027,0.535,0.133
3/31/2023 11:46:01.820,1.07,0.602,0.117
3/31/2023 11:46:01.830,1.172,0.688,0.125
3/31/2023 11:46:01.840,1.27,0.762,0.137
3/31/2023 11:46:01.850,1.305,0.801,0.141
3/31/2023 11:46:01.860,1.258,0.801,0.137
3/31/2023 11:46:01.870,1.18,0.789,0.117
3/31/2023 11:46:01.880,1.117,0.742,0.074
3/31/2023 11:46:01.890,1.086,0.684,0.031
3/31/2023 11:46:01.900,1.082,0.605,-0.016
3/31/2023 11:46:01.910,1.078,0.512,-0.047
3/31/2023 11:46:01.920,1.082,0.434,-0.059
3/31/2023 11:46:01.930,1.086,0.371,-0.035
3/31/2023 11:46:01.940,1.074,0.34,0.008
3/31/2023 11:46:01.950,1.043,0.344,0.059
3/31/2023 11:46:01.960,0.988,0.371,0.098
3/31/2023 11:46:01.970,0.922,0.387,0.129
3/31/2023 11:46:01.980,0.852,0.387,0.152
3/31/2023 11:46:01.990,0.781,0.383,0.164
3/31/2023 11:46:02.000,0.707,0.398,0.156
3/31/2023 11:46:02.010,0.66,0.406,0.156
3/31/2023 11:46:02.020,0.613,0.43,0.152
3/31/2023 11:46:02.030,0.578,0.453,0.145
3/31/2023 11:46:02.040,0.551,0.473,0.145
3/31/2023 11:46:02.050,0.52,0.492,0.148
3/31/2023 11:46:02.060,0.492,0.5,0.148
3/31/2023 11:46:02.070,0.477,0.492,0.156
3/31/2023 11:46:02.080,0.48,0.461,0.168
3/31/2023 11:46:02.090,0.492,0.426,0.172
3/31/2023 11:46:02.100,0.5,0.379,0.172
3/31/2023 11:46:02.110,0.504,0.344,0.176
3/31/2023 11:46:02.120,0.504,0.313,0.176
3/31/2023 11:46:02.130,0.512,0.289,0.172
3/31/2023 11:46:02.140,0.535,0.277,0.176
3/31/2023 11:46:02.150,0.566,0.273,0.18
3/31/2023 11:46:02.160,0.613,0.277,0.18
3/31/2023 11:46:02.170,0.656,0.281,0.176
3/31/2023 11:46:02.180,0.719,0.301,0.172
3/31/2023 11:46:02.190,0.797,0.328,0.16
3/31/2023 11:46:02.200,0.871,0.359,0.145
3/31/2023 11:46:02.210,0.953,0.387,0.125
3/31/2023 11:46:02.220,1.047,0.414,0.109
3/31/2023 11:46:02.230,1.141,0.434,0.094
3/31/2023 11:46:02.240,1.219,0.449,0.078
3/31/2023 11:46:02.250,1.289,0.461,0.078
3/31/2023 11:46:02.260,1.328,0.477,0.086
3/31/2023 11:46:02.270,1.32,0.5,0.109
3/31/2023 11:46:02.280,1.273,0.512,0.141
3/31/2023 11:46:02.290,1.238,0.5,0.156
3/31/2023 11:46:02.300,1.27,0.477,0.141
3/31/2023 11:46:02.310,1.379,0.441,0.082
3/31/2023 11:46:02.320,1.516,0.422,0.012
3/31/2023 11:46:02.330,1.633,0.422,-0.039
3/31/2023 11:46:02.340,1.633,0.445,-0.051
3/31/2023 11:46:02.350,1.5,0.469,-0.012
3/31/2023 11:46:02.360,1.285,0.508,0.074
3/31/2023 11:46:02.370,1.074,0.551,0.156
3/31/2023 11:46:02.380,0.926,0.582,0.211
3/31/2023 11:46:02.390,0.875,0.563,0.219
3/31/2023 11:46:02.400,0.941,0.496,0.215
3/31/2023 11:46:02.410,1.043,0.395,0.199
3/31/2023 11:46:02.420,1.113,0.309,0.168
3/31/2023 11:46:02.430,1.113,0.25,0.137
3/31/2023 11:46:02.440,1.047,0.219,0.105
3/31/2023 11:46:02.450,0.945,0.195,0.094
3/31/2023 11:46:02.460,0.848,0.188,0.098
3/31/2023 11:46:02.470,0.77,0.176,0.121
3/31/2023 11:46:02.480,0.715,0.18,0.145
3/31/2023 11:46:02.490,0.676,0.191,0.16
3/31/2023 11:46:02.500,0.633,0.219,0.156
3/31/2023 11:46:02.510,0.59,0.258,0.137
3/31/2023 11:46:02.520,0.527,0.289,0.109
3/31/2023 11:46:02.530,0.461,0.305,0.098
3/31/2023 11:46:02.540,0.398,0.313,0.098
3/31/2023 11:46:02.550,0.355,0.32,0.109
3/31/2023 11:46:02.560,0.352,0.324,0.121
3/31/2023 11:46:02.570,0.371,0.332,0.133
3/31/2023 11:46:02.580,0.406,0.344,0.137
3/31/2023 11:46:02.590,0.461,0.363,0.141
3/31/2023 11:46:02.600,0.516,0.391,0.156
3/31/2023 11:46:02.610,0.559,0.422,0.168
3/31/2023 11:46:02.620,0.59,0.453,0.191
3/31/2023 11:46:02.630,0.605,0.473,0.207
3/31/2023 11:46:02.640,0.625,0.488,0.223
3/31/2023 11:46:02.650,0.648,0.492,0.238
3/31/2023 11:46:02.660,0.688,0.484,0.242
3/31/2023 11:46:02.670,0.75,0.48,0.23
3/31/2023 11:46:02.680,0.824,0.477,0.211
3/31/2023 11:46:02.690,0.895,0.473,0.18
3/31/2023 11:46:02.700,0.969,0.465,0.148
3/31/2023 11:46:02.710,1.047,0.477,0.125
3/31/2023 11:46:02.720,1.133,0.516,0.113
3/31/2023 11:46:02.730,1.199,0.559,0.113
3/31/2023 11:46:02.740,1.238,0.602,0.109
3/31/2023 11:46:02.750,1.238,0.625,0.105
3/31/2023 11:46:02.760,1.215,0.633,0.105
3/31/2023 11:46:02.770,1.195,0.637,0.109
3/31/2023 11:46:02.780,1.223,0.656,0.117
3/31/2023 11:46:02.790,1.297,0.699,0.133
3/31/2023 11:46:02.800,1.359,0.77,0.164
3/31/2023 11:46:02.810,1.367,0.828,0.18
3/31/2023 11:46:02.820,1.313,0.875,0.195
3/31/2023 11:46:02.830,1.23,0.902,0.195
3/31/2023 11:46:02.840,1.164,0.91,0.203
3/31/2023 11:46:02.850,1.125,0.898,0.199
3/31/2023 11:46:02.860,1.121,0.859,0.184
3/31/2023 11:46:02.870,1.137,0.789,0.16
3/31/2023 11:46:02.880,1.188,0.695,0.129
3/31/2023 11:46:02.890,1.25,0.586,0.102
3/31/2023 11:46:02.900,1.293,0.488,0.094
3/31/2023 11:46:02.910,1.285,0.406,0.102
3/31/2023 11:46:02.920,1.215,0.359,0.121
3/31/2023 11:46:02.930,1.102,0.332,0.148
3/31/2023 11:46:02.940,0.977,0.309,0.188
3/31/2023 11:46:02.950,0.855,0.281,0.223
3/31/2023 11:46:02.960,0.762,0.258,0.25
3/31/2023 11:46:02.970,0.688,0.242,0.266
3/31/2023 11:46:02.980,0.641,0.242,0.258
3/31/2023 11:46:02.990,0.605,0.254,0.242
3/31/2023 11:46:03.000,0.578,0.266,0.219
3/31/2023 11:46:03.010,0.566,0.285,0.191
3/31/2023 11:46:03.020,0.539,0.316,0.16
3/31/2023 11:46:03.030,0.512,0.355,0.129
3/31/2023 11:46:03.040,0.473,0.395,0.109
3/31/2023 11:46:03.050,0.445,0.418,0.105
3/31/2023 11:46:03.060,0.434,0.426,0.105
3/31/2023 11:46:03.070,0.43,0.418,0.102
3/31/2023 11:46:03.080,0.438,0.402,0.098
3/31/2023 11:46:03.090,0.457,0.379,0.094
3/31/2023 11:46:03.100,0.484,0.355,0.082
3/31/2023 11:46:03.110,0.504,0.324,0.074
3/31/2023 11:46:03.120,0.531,0.316,0.07
3/31/2023 11:46:03.130,0.566,0.309,0.066
3/31/2023 11:46:03.140,0.605,0.316,0.074
3/31/2023 11:46:03.150,0.645,0.328,0.074
3/31/2023 11:46:03.160,0.688,0.34,0.082
3/31/2023 11:46:03.170,0.75,0.367,0.078
3/31/2023 11:46:03.180,0.813,0.391,0.074
3/31/2023 11:46:03.190,0.875,0.418,0.07
3/31/2023 11:46:03.200,0.961,0.445,0.07
3/31/2023 11:46:03.210,1.066,0.477,0.074
3/31/2023 11:46:03.220,1.16,0.492,0.082
3/31/2023 11:46:03.230,1.223,0.5,0.082
3/31/2023 11:46:03.240,1.266,0.5,0.066
3/31/2023 11:46:03.250,1.324,0.512,0.043
3/31/2023 11:46:03.260,1.418,0.531,0.004
3/31/2023 11:46:03.270,1.523,0.574,-0.023
3/31/2023 11:46:03.280,1.582,0.629,-0.004
3/31/2023 11:46:03.290,1.527,0.672,0.07
3/31/2023 11:46:03.300,1.383,0.703,0.18
3/31/2023 11:46:03.310,1.219,0.746,0.289
3/31/2023 11:46:03.320,1.094,0.797,0.359
3/31/2023 11:46:03.330,1.035,0.82,0.355
3/31/2023 11:46:03.340,1.047,0.77,0.297
3/31/2023 11:46:03.350,1.102,0.633,0.215
3/31/2023 11:46:03.360,1.137,0.465,0.141
3/31/2023 11:46:03.370,1.133,0.344,0.098
3/31/2023 11:46:03.380,1.098,0.273,0.09
3/31/2023 11:46:03.390,1.027,0.238,0.117
3/31/2023 11:46:03.400,0.941,0.234,0.176
3/31/2023 11:46:03.410,0.844,0.223,0.246
3/31/2023 11:46:03.420,0.758,0.207,0.313
3/31/2023 11:46:03.430,0.695,0.199,0.281
3/31/2023 11:46:03.440,0.617,0.219,0.289
3/31/2023 11:46:03.450,0.535,0.145,0.402
3/31/2023 11:46:03.460,0.508,0.012,0.484
3/31/2023 11:46:03.470,0.535,0.008,0.488
3/31/2023 11:46:03.480,0.57,0.113,0.387
3/31/2023 11:46:03.490,0.543,0.281,0.238
3/31/2023 11:46:03.500,0.477,0.461,0.109
3/31/2023 11:46:03.510,0.43,0.586,0.051
3/31/2023 11:46:03.520,0.406,0.645,0.031
3/31/2023 11:46:03.530,0.422,0.621,0.047
3/31/2023 11:46:03.540,0.457,0.559,0.078
3/31/2023 11:46:03.550,0.504,0.496,0.098
3/31/2023 11:46:03.560,0.551,0.469,0.105
3/31/2023 11:46:03.570,0.578,0.473,0.102
3/31/2023 11:46:03.580,0.617,0.492,0.102
3/31/2023 11:46:03.590,0.676,0.523,0.113
3/31/2023 11:46:03.600,0.738,0.535,0.129
3/31/2023 11:46:03.610,0.797,0.527,0.141
3/31/2023 11:46:03.620,0.836,0.504,0.141
3/31/2023 11:46:03.630,0.875,0.461,0.141
3/31/2023 11:46:03.640,0.922,0.41,0.137
3/31/2023 11:46:03.650,0.973,0.387,0.129
3/31/2023 11:46:03.660,1.039,0.379,0.133
3/31/2023 11:46:03.670,1.102,0.391,0.141
3/31/2023 11:46:03.680,1.164,0.418,0.156
3/31/2023 11:46:03.690,1.211,0.445,0.176
3/31/2023 11:46:03.700,1.227,0.48,0.191
3/31/2023 11:46:03.710,1.234,0.531,0.184
3/31/2023 11:46:03.720,1.289,0.613,0.18
3/31/2023 11:46:03.730,1.398,0.73,0.191
3/31/2023 11:46:03.740,1.504,0.887,0.219
3/31/2023 11:46:03.750,1.539,1.02,0.258
3/31/2023 11:46:03.760,1.438,1.09,0.285
3/31/2023 11:46:03.770,1.273,1.094,0.289
3/31/2023 11:46:03.780,1.141,1.078,0.297
3/31/2023 11:46:03.790,1.055,1.004,0.27
3/31/2023 11:46:03.800,1.043,0.852,0.207
3/31/2023 11:46:03.810,1.086,0.668,0.152
3/31/2023 11:46:03.820,1.152,0.516,0.121
3/31/2023 11:46:03.830,1.211,0.43,0.102
3/31/2023 11:46:03.840,1.227,0.395,0.102
3/31/2023 11:46:03.850,1.203,0.379,0.117
3/31/2023 11:46:03.860,1.145,0.359,0.16
3/31/2023 11:46:03.870,1.043,0.324,0.219
3/31/2023 11:46:03.880,0.941,0.281,0.266
3/31/2023 11:46:03.890,0.848,0.242,0.281
3/31/2023 11:46:03.900,0.762,0.223,0.297
3/31/2023 11:46:03.910,0.688,0.219,0.293
3/31/2023 11:46:03.920,0.633,0.242,0.273
3/31/2023 11:46:03.930,0.594,0.293,0.234
3/31/2023 11:46:03.940,0.563,0.348,0.184
3/31/2023 11:46:03.950,0.539,0.402,0.137
3/31/2023 11:46:03.960,0.52,0.449,0.098
3/31/2023 11:46:03.970,0.488,0.469,0.074
3/31/2023 11:46:03.980,0.473,0.477,0.051
3/31/2023 11:46:03.990,0.441,0.48,0.039
3/31/2023 11:46:04.000,0.418,0.484,0.031
3/31/2023 11:46:04.010,0.406,0.484,0.031
3/31/2023 11:46:04.020,0.402,0.484,0.031
3/31/2023 11:46:04.030,0.398,0.473,0.031
3/31/2023 11:46:04.040,0.406,0.441,0.043
3/31/2023 11:46:04.050,0.426,0.398,0.059
3/31/2023 11:46:04.060,0.465,0.359,0.074
3/31/2023 11:46:04.070,0.504,0.332,0.074
3/31/2023 11:46:04.080,0.543,0.32,0.074
3/31/2023 11:46:04.090,0.586,0.313,0.07
3/31/2023 11:46:04.100,0.629,0.309,0.066
3/31/2023 11:46:04.110,0.684,0.301,0.066
3/31/2023 11:46:04.120,0.773,0.305,0.07
3/31/2023 11:46:04.130,0.887,0.32,0.078
3/31/2023 11:46:04.140,1,0.352,0.098
3/31/2023 11:46:04.150,1.09,0.379,0.105
3/31/2023 11:46:04.160,1.152,0.414,0.109
3/31/2023 11:46:04.170,1.176,0.438,0.102
3/31/2023 11:46:04.180,1.164,0.449,0.082
3/31/2023 11:46:04.190,1.152,0.449,0.051
3/31/2023 11:46:04.200,1.195,0.449,0.016
3/31/2023 11:46:04.210,1.309,0.484,-0.016
3/31/2023 11:46:04.220,1.445,0.539,-0.027
3/31/2023 11:46:04.230,1.555,0.605,-0.008
3/31/2023 11:46:04.240,1.547,0.664,0.043
3/31/2023 11:46:04.250,1.43,0.699,0.121
3/31/2023 11:46:04.260,1.27,0.738,0.211
3/31/2023 11:46:04.270,1.141,0.797,0.273
3/31/2023 11:46:04.280,1.086,0.84,0.289
3/31/2023 11:46:04.290,1.117,0.832,0.258
3/31/2023 11:46:04.300,1.184,0.762,0.203
3/31/2023 11:46:04.310,1.227,0.617,0.148
3/31/2023 11:46:04.320,1.23,0.469,0.121
3/31/2023 11:46:04.330,1.191,0.391,0.117
3/31/2023 11:46:04.340,1.113,0.375,0.145
3/31/2023 11:46:04.350,0.996,0.359,0.191
3/31/2023 11:46:04.360,0.863,0.305,0.254
3/31/2023 11:46:04.370,0.738,0.211,0.313
3/31/2023 11:46:04.380,0.645,0.102,0.355
3/31/2023 11:46:04.390,0.582,-0.004,0.387
3/31/2023 11:46:04.400,0.527,-0.055,0.371
3/31/2023 11:46:04.410,0.469,-0.051,0.34
3/31/2023 11:46:04.420,0.422,-0.004,0.324
3/31/2023 11:46:04.430,0.398,0.043,0.32
3/31/2023 11:46:04.440,0.379,0.105,0.313
3/31/2023 11:46:04.450,0.383,0.195,0.289
3/31/2023 11:46:04.460,0.375,0.285,0.254
3/31/2023 11:46:04.470,0.363,0.398,0.188
3/31/2023 11:46:04.480,0.359,0.52,0.109
3/31/2023 11:46:04.490,0.375,0.625,0.055
3/31/2023 11:46:04.500,0.395,0.676,0.039
3/31/2023 11:46:04.510,0.445,0.66,0.066
3/31/2023 11:46:04.520,0.5,0.629,0.098
3/31/2023 11:46:04.530,0.566,0.574,0.137
3/31/2023 11:46:04.540,0.641,0.527,0.176
3/31/2023 11:46:04.550,0.707,0.508,0.191
3/31/2023 11:46:04.560,0.762,0.492,0.184
3/31/2023 11:46:04.570,0.813,0.48,0.176
3/31/2023 11:46:04.580,0.867,0.461,0.168
3/31/2023 11:46:04.590,0.926,0.445,0.152
3/31/2023 11:46:04.600,1.004,0.438,0.141
3/31/2023 11:46:04.610,1.094,0.457,0.141
3/31/2023 11:46:04.620,1.203,0.496,0.141
3/31/2023 11:46:04.630,1.293,0.547,0.156
3/31/2023 11:46:04.640,1.332,0.602,0.199
3/31/2023 11:46:04.650,1.289,0.625,0.23
3/31/2023 11:46:04.660,1.207,0.621,0.227
3/31/2023 11:46:04.670,1.195,0.621,0.188
3/31/2023 11:46:04.680,1.293,0.66,0.168
3/31/2023 11:46:04.690,1.426,0.738,0.172
3/31/2023 11:46:04.700,1.492,0.836,0.191
3/31/2023 11:46:04.710,1.449,0.926,0.215
3/31/2023 11:46:04.720,1.328,0.969,0.215
3/31/2023 11:46:04.730,1.195,0.977,0.191
3/31/2023 11:46:04.740,1.109,0.926,0.141
3/31/2023 11:46:04.750,1.082,0.852,0.082
3/31/2023 11:46:04.760,1.105,0.762,0.031
3/31/2023 11:46:04.770,1.168,0.684,-0.004
3/31/2023 11:46:04.780,1.258,0.617,-0.02
3/31/2023 11:46:04.790,1.328,0.559,-0.012
3/31/2023 11:46:04.800,1.348,0.516,0.023
3/31/2023 11:46:04.810,1.297,0.484,0.094
3/31/2023 11:46:04.820,1.195,0.449,0.168
3/31/2023 11:46:04.830,1.059,0.395,0.219
3/31/2023 11:46:04.840,0.93,0.332,0.262
3/31/2023 11:46:04.850,0.82,0.273,0.281
3/31/2023 11:46:04.860,0.723,0.238,0.277
3/31/2023 11:46:04.870,0.645,0.234,0.258
3/31/2023 11:46:04.880,0.574,0.258,0.223
3/31/2023 11:46:04.890,0.527,0.289,0.188
3/31/2023 11:46:04.900,0.5,0.309,0.156
3/31/2023 11:46:04.910,0.48,0.313,0.129
3/31/2023 11:46:04.920,0.469,0.328,0.094
3/31/2023 11:46:04.930,0.461,0.34,0.078
3/31/2023 11:46:04.940,0.465,0.355,0.07
3/31/2023 11:46:04.950,0.461,0.367,0.07
3/31/2023 11:46:04.960,0.445,0.375,0.066
3/31/2023 11:46:04.970,0.445,0.387,0.066
3/31/2023 11:46:04.980,0.457,0.391,0.07
3/31/2023 11:46:04.990,0.477,0.387,0.066
3/31/2023 11:46:05.000,0.496,0.375,0.066
3/31/2023 11:46:05.010,0.543,0.348,0.07
3/31/2023 11:46:05.020,0.594,0.336,0.07
3/31/2023 11:46:05.030,0.645,0.32,0.07
3/31/2023 11:46:05.040,0.695,0.309,0.07
3/31/2023 11:46:05.050,0.73,0.309,0.07
3/31/2023 11:46:05.060,0.766,0.309,0.066
3/31/2023 11:46:05.070,0.813,0.328,0.07
3/31/2023 11:46:05.080,0.871,0.355,0.066
3/31/2023 11:46:05.090,0.961,0.391,0.063
3/31/2023 11:46:05.100,1.082,0.434,0.078
3/31/2023 11:46:05.110,1.184,0.461,0.09
3/31/2023 11:46:05.120,1.207,0.465,0.117
3/31/2023 11:46:05.130,1.152,0.473,0.156
3/31/2023 11:46:05.140,1.059,0.473,0.184
3/31/2023 11:46:05.150,1.008,0.484,0.188
3/31/2023 11:46:05.160,1.074,0.508,0.164
3/31/2023 11:46:05.170,1.234,0.516,0.105
3/31/2023 11:46:05.180,1.395,0.504,0.043
3/31/2023 11:46:05.190,1.5,0.477,0.02
3/31/2023 11:46:05.200,1.508,0.461,0.035
3/31/2023 11:46:05.210,1.398,0.477,0.078
3/31/2023 11:46:05.220,1.234,0.527,0.133
3/31/2023 11:46:05.230,1.102,0.605,0.191
3/31/2023 11:46:05.240,1.043,0.684,0.246
3/31/2023 11:46:05.250,1.051,0.738,0.289
3/31/2023 11:46:05.260,1.109,0.73,0.324
3/31/2023 11:46:05.270,1.172,0.691,0.324
3/31/2023 11:46:05.280,1.195,0.648,0.309
3/31/2023 11:46:05.290,1.16,0.598,0.273
3/31/2023 11:46:05.300,1.086,0.547,0.238
3/31/2023 11:46:05.310,1.004,0.496,0.223
3/31/2023 11:46:05.320,0.918,0.449,0.227
3/31/2023 11:46:05.330,0.824,0.379,0.254
3/31/2023 11:46:05.340,0.73,0.313,0.285
3/31/2023 11:46:05.350,0.633,0.262,0.305
3/31/2023 11:46:05.360,0.551,0.223,0.309
3/31/2023 11:46:05.370,0.484,0.207,0.289
3/31/2023 11:46:05.380,0.449,0.223,0.246
3/31/2023 11:46:05.390,0.41,0.246,0.254
3/31/2023 11:46:05.400,0.375,0.215,0.285
3/31/2023 11:46:05.410,0.371,0.176,0.324
3/31/2023 11:46:05.420,0.387,0.176,0.336
3/31/2023 11:46:05.430,0.395,0.211,0.313
3/31/2023 11:46:05.440,0.398,0.285,0.273
3/31/2023 11:46:05.450,0.406,0.391,0.23
3/31/2023 11:46:05.460,0.414,0.484,0.191
3/31/2023 11:46:05.470,0.449,0.547,0.16
3/31/2023 11:46:05.480,0.5,0.578,0.16
3/31/2023 11:46:05.490,0.555,0.578,0.168
3/31/2023 11:46:05.500,0.605,0.563,0.188
3/31/2023 11:46:05.510,0.66,0.527,0.203
3/31/2023 11:46:05.520,0.703,0.48,0.191
3/31/2023 11:46:05.530,0.746,0.449,0.176
3/31/2023 11:46:05.540,0.801,0.453,0.152
3/31/2023 11:46:05.550,0.875,0.473,0.133
3/31/2023 11:46:05.560,0.973,0.512,0.117
3/31/2023 11:46:05.570,1.082,0.547,0.117
3/31/2023 11:46:05.580,1.168,0.578,0.129
3/31/2023 11:46:05.590,1.223,0.594,0.129
3/31/2023 11:46:05.600,1.238,0.598,0.109
3/31/2023 11:46:05.610,1.281,0.625,0.074
3/31/2023 11:46:05.620,1.387,0.684,0.063
3/31/2023 11:46:05.630,1.543,0.785,0.074
3/31/2023 11:46:05.640,1.652,0.922,0.113
3/31/2023 11:46:05.650,1.629,1.012,0.156
3/31/2023 11:46:05.660,1.484,1.039,0.191
3/31/2023 11:46:05.670,1.316,1.008,0.215
3/31/2023 11:46:05.680,1.199,0.945,0.219
3/31/2023 11:46:05.690,1.145,0.855,0.184
3/31/2023 11:46:05.700,1.133,0.746,0.121
3/31/2023 11:46:05.710,1.141,0.625,0.066
3/31/2023 11:46:05.720,1.148,0.516,0.031
3/31/2023 11:46:05.730,1.16,0.445,0.031
3/31/2023 11:46:05.740,1.148,0.414,0.055
3/31/2023 11:46:05.750,1.121,0.41,0.102
3/31/2023 11:46:05.760,1.055,0.41,0.156
3/31/2023 11:46:05.770,0.969,0.395,0.195
3/31/2023 11:46:05.780,0.883,0.379,0.23
3/31/2023 11:46:05.790,0.816,0.355,0.254
3/31/2023 11:46:05.800,0.766,0.34,0.25
3/31/2023 11:46:05.810,0.723,0.352,0.234
3/31/2023 11:46:05.820,0.68,0.363,0.215
3/31/2023 11:46:05.830,0.633,0.367,0.191
3/31/2023 11:46:05.840,0.594,0.359,0.168
3/31/2023 11:46:05.850,0.555,0.359,0.152
3/31/2023 11:46:05.860,0.531,0.371,0.121
3/31/2023 11:46:05.870,0.504,0.379,0.098
3/31/2023 11:46:05.880,0.5,0.379,0.094
3/31/2023 11:46:05.890,0.496,0.379,0.094
3/31/2023 11:46:05.900,0.48,0.367,0.098
3/31/2023 11:46:05.910,0.477,0.363,0.102
3/31/2023 11:46:05.920,0.48,0.359,0.102
3/31/2023 11:46:05.930,0.484,0.34,0.105
3/31/2023 11:46:05.940,0.508,0.332,0.098
3/31/2023 11:46:05.950,0.531,0.324,0.098
3/31/2023 11:46:05.960,0.555,0.316,0.094
3/31/2023 11:46:05.970,0.582,0.316,0.086
3/31/2023 11:46:05.980,0.617,0.332,0.078
3/31/2023 11:46:05.990,0.656,0.355,0.07
3/31/2023 11:46:06.000,0.715,0.371,0.066
3/31/2023 11:46:06.010,0.805,0.379,0.066
3/31/2023 11:46:06.020,0.891,0.391,0.055
3/31/2023 11:46:06.030,0.98,0.395,0.039
3/31/2023 11:46:06.040,1.066,0.402,0.039
3/31/2023 11:46:06.050,1.164,0.418,0.047
3/31/2023 11:46:06.060,1.242,0.441,0.059
3/31/2023 11:46:06.070,1.293,0.465,0.078
3/31/2023 11:46:06.080,1.293,0.469,0.105
3/31/2023 11:46:06.090,1.277,0.461,0.125
3/31/2023 11:46:06.100,1.301,0.449,0.117
3/31/2023 11:46:06.110,1.367,0.453,0.074
3/31/2023 11:46:06.120,1.453,0.457,0.016
3/31/2023 11:46:06.130,1.504,0.473,-0.02
3/31/2023 11:46:06.140,1.453,0.473,-0.039
3/31/2023 11:46:06.150,1.297,0.469,-0.027
3/31/2023 11:46:06.160,1.121,0.477,0
3/31/2023 11:46:06.170,0.973,0.512,0.063
3/31/2023 11:46:06.180,0.902,0.574,0.121
3/31/2023 11:46:06.190,0.934,0.613,0.164
3/31/2023 11:46:06.200,1.035,0.625,0.199
3/31/2023 11:46:06.210,1.148,0.586,0.219
3/31/2023 11:46:06.220,1.223,0.531,0.223
3/31/2023 11:46:06.230,1.223,0.492,0.215
3/31/2023 11:46:06.240,1.141,0.484,0.188
3/31/2023 11:46:06.250,1.02,0.48,0.168
3/31/2023 11:46:06.260,0.891,0.461,0.164
3/31/2023 11:46:06.270,0.777,0.414,0.184
3/31/2023 11:46:06.280,0.688,0.344,0.219
3/31/2023 11:46:06.290,0.625,0.273,0.25
3/31/2023 11:46:06.300,0.566,0.23,0.27
3/31/2023 11:46:06.310,0.523,0.211,0.262
3/31/2023 11:46:06.320,0.484,0.219,0.262
3/31/2023 11:46:06.330,0.438,0.215,0.258
3/31/2023 11:46:06.340,0.41,0.215,0.254
3/31/2023 11:46:06.350,0.406,0.242,0.242
3/31/2023 11:46:06.360,0.414,0.277,0.215
3/31/2023 11:46:06.370,0.426,0.332,0.18
3/31/2023 11:46:06.380,0.445,0.391,0.148
3/31/2023 11:46:06.390,0.477,0.434,0.148
3/31/2023 11:46:06.400,0.504,0.457,0.156
3/31/2023 11:46:06.410,0.535,0.461,0.184
3/31/2023 11:46:06.420,0.57,0.453,0.219
3/31/2023 11:46:06.430,0.617,0.453,0.246
3/31/2023 11:46:06.440,0.676,0.453,0.27
3/31/2023 11:46:06.450,0.742,0.461,0.281
3/31/2023 11:46:06.460,0.809,0.48,0.273
3/31/2023 11:46:06.470,0.879,0.5,0.258
3/31/2023 11:46:06.480,0.938,0.488,0.238
3/31/2023 11:46:06.490,1.004,0.473,0.211
3/31/2023 11:46:06.500,1.047,0.469,0.188
3/31/2023 11:46:06.510,1.102,0.488,0.168
3/31/2023 11:46:06.520,1.141,0.527,0.148
3/31/2023 11:46:06.530,1.172,0.57,0.152
3/31/2023 11:46:06.540,1.191,0.609,0.156
3/31/2023 11:46:06.550,1.195,0.637,0.152
3/31/2023 11:46:06.560,1.223,0.668,0.137
3/31/2023 11:46:06.570,1.285,0.711,0.129
3/31/2023 11:46:06.580,1.375,0.773,0.141
3/31/2023 11:46:06.590,1.441,0.852,0.176
3/31/2023 11:46:06.600,1.414,0.914,0.219
3/31/2023 11:46:06.610,1.289,0.922,0.254
3/31/2023 11:46:06.620,1.141,0.902,0.266
3/31/2023 11:46:06.630,1.035,0.867,0.258
3/31/2023 11:46:06.640,0.988,0.805,0.23
3/31/2023 11:46:06.650,0.996,0.719,0.195
3/31/2023 11:46:06.660,1.039,0.621,0.16
3/31/2023 11:46:06.670,1.102,0.527,0.125
3/31/2023 11:46:06.680,1.156,0.469,0.109
3/31/2023 11:46:06.690,1.191,0.445,0.105
3/31/2023 11:46:06.700,1.164,0.449,0.113
3/31/2023 11:46:06.710,1.094,0.465,0.141
3/31/2023 11:46:06.720,1.012,0.461,0.176
3/31/2023 11:46:06.730,0.93,0.441,0.207
3/31/2023 11:46:06.740,0.855,0.414,0.23
3/31/2023 11:46:06.750,0.801,0.375,0.238
3/31/2023 11:46:06.760,0.758,0.34,0.23
3/31/2023 11:46:06.770,0.703,0.316,0.219
3/31/2023 11:46:06.780,0.652,0.313,0.191
3/31/2023 11:46:06.790,0.598,0.32,0.164
3/31/2023 11:46:06.800,0.555,0.336,0.141
3/31/2023 11:46:06.810,0.535,0.359,0.125
3/31/2023 11:46:06.820,0.527,0.379,0.113
3/31/2023 11:46:06.830,0.523,0.398,0.105
3/31/2023 11:46:06.840,0.516,0.402,0.113
3/31/2023 11:46:06.850,0.523,0.402,0.121
3/31/2023 11:46:06.860,0.527,0.395,0.129
3/31/2023 11:46:06.870,0.535,0.391,0.129
3/31/2023 11:46:06.880,0.559,0.391,0.117
3/31/2023 11:46:06.890,0.594,0.395,0.105
3/31/2023 11:46:06.900,0.629,0.402,0.098
3/31/2023 11:46:06.910,0.672,0.406,0.086
3/31/2023 11:46:06.920,0.707,0.402,0.078
3/31/2023 11:46:06.930,0.746,0.402,0.07
3/31/2023 11:46:06.940,0.773,0.391,0.07
3/31/2023 11:46:06.950,0.805,0.387,0.07
3/31/2023 11:46:06.960,0.836,0.391,0.074
3/31/2023 11:46:06.970,0.898,0.406,0.074
3/31/2023 11:46:06.980,1,0.43,0.074
3/31/2023 11:46:06.990,1.137,0.461,0.074
3/31/2023 11:46:07.000,1.254,0.477,0.074
3/31/2023 11:46:07.010,1.316,0.453,0.094
3/31/2023 11:46:07.020,1.27,0.434,0.117
3/31/2023 11:46:07.030,1.141,0.402,0.141
3/31/2023 11:46:07.040,1.043,0.383,0.133
3/31/2023 11:46:07.050,1.066,0.391,0.102
3/31/2023 11:46:07.060,1.215,0.41,0.059
3/31/2023 11:46:07.070,1.383,0.43,0.023
3/31/2023 11:46:07.080,1.48,0.426,0.008
3/31/2023 11:46:07.090,1.465,0.41,0.023
3/31/2023 11:46:07.100,1.332,0.395,0.043
3/31/2023 11:46:07.110,1.16,0.406,0.066
3/31/2023 11:46:07.120,1.023,0.457,0.086
3/31/2023 11:46:07.130,0.957,0.52,0.105
3/31/2023 11:46:07.140,0.98,0.566,0.129
3/31/2023 11:46:07.150,1.07,0.551,0.164
3/31/2023 11:46:07.160,1.18,0.52,0.203
3/31/2023 11:46:07.170,1.227,0.473,0.23
3/31/2023 11:46:07.180,1.184,0.438,0.23
3/31/2023 11:46:07.190,1.086,0.418,0.211
3/31/2023 11:46:07.200,0.961,0.391,0.188
3/31/2023 11:46:07.210,0.84,0.34,0.172
3/31/2023 11:46:07.220,0.727,0.262,0.152
3/31/2023 11:46:07.230,0.645,0.176,0.16
3/31/2023 11:46:07.240,0.617,0.113,0.234
3/31/2023 11:46:07.250,0.586,0.121,0.227
3/31/2023 11:46:07.260,0.523,0.23,0.281
3/31/2023 11:46:07.270,0.465,0.246,0.355
3/31/2023 11:46:07.280,0.441,0.184,0.352
3/31/2023 11:46:07.290,0.453,0.207,0.309
3/31/2023 11:46:07.300,0.457,0.301,0.211
3/31/2023 11:46:07.310,0.414,0.391,0.113
3/31/2023 11:46:07.320,0.363,0.449,0.055
3/31/2023 11:46:07.330,0.344,0.469,0.051
3/31/2023 11:46:07.340,0.363,0.465,0.074
3/31/2023 11:46:07.350,0.418,0.457,0.105
3/31/2023 11:46:07.360,0.484,0.465,0.137
3/31/2023 11:46:07.370,0.555,0.484,0.168
3/31/2023 11:46:07.380,0.617,0.508,0.184
3/31/2023 11:46:07.390,0.68,0.527,0.191
3/31/2023 11:46:07.400,0.75,0.535,0.188
3/31/2023 11:46:07.410,0.824,0.52,0.164
3/31/2023 11:46:07.420,0.91,0.496,0.145
3/31/2023 11:46:07.430,1.004,0.484,0.125
3/31/2023 11:46:07.440,1.105,0.492,0.109
3/31/2023 11:46:07.450,1.199,0.508,0.113
3/31/2023 11:46:07.460,1.262,0.523,0.141
3/31/2023 11:46:07.470,1.289,0.547,0.18
3/31/2023 11:46:07.480,1.289,0.578,0.223
3/31/2023 11:46:07.490,1.27,0.617,0.262
3/31/2023 11:46:07.500,1.266,0.66,0.27
3/31/2023 11:46:07.510,1.34,0.707,0.27
3/31/2023 11:46:07.520,1.43,0.773,0.27
3/31/2023 11:46:07.530,1.473,0.824,0.27
3/31/2023 11:46:07.540,1.434,0.859,0.266
3/31/2023 11:46:07.550,1.324,0.867,0.262
3/31/2023 11:46:07.560,1.203,0.859,0.246
3/31/2023 11:46:07.570,1.113,0.844,0.219
3/31/2023 11:46:07.580,1.063,0.797,0.168
3/31/2023 11:46:07.590,1.063,0.723,0.109
3/31/2023 11:46:07.600,1.074,0.633,0.051
3/31/2023 11:46:07.610,1.109,0.535,0.004
3/31/2023 11:46:07.620,1.152,0.461,-0.023
3/31/2023 11:46:07.630,1.184,0.418,-0.016
3/31/2023 11:46:07.640,1.188,0.402,0.016
3/31/2023 11:46:07.650,1.156,0.402,0.066
3/31/2023 11:46:07.660,1.094,0.406,0.133
3/31/2023 11:46:07.670,1.008,0.395,0.18
3/31/2023 11:46:07.680,0.93,0.367,0.219
3/31/2023 11:46:07.690,0.859,0.332,0.227
3/31/2023 11:46:07.700,0.781,0.309,0.211
3/31/2023 11:46:07.710,0.691,0.297,0.18
3/31/2023 11:46:07.720,0.598,0.305,0.152
3/31/2023 11:46:07.730,0.52,0.316,0.113
3/31/2023 11:46:07.740,0.461,0.344,0.105
3/31/2023 11:46:07.750,0.434,0.375,0.105
3/31/2023 11:46:07.760,0.426,0.398,0.109
3/31/2023 11:46:07.770,0.434,0.414,0.109
3/31/2023 11:46:07.780,0.461,0.418,0.105
3/31/2023 11:46:07.790,0.48,0.398,0.102
3/31/2023 11:46:07.800,0.488,0.375,0.098
3/31/2023 11:46:07.810,0.477,0.344,0.082
3/31/2023 11:46:07.820,0.465,0.328,0.078
3/31/2023 11:46:07.830,0.473,0.32,0.074
3/31/2023 11:46:07.840,0.508,0.332,0.074
3/31/2023 11:46:07.850,0.57,0.352,0.07
3/31/2023 11:46:07.860,0.629,0.355,0.078
3/31/2023 11:46:07.870,0.672,0.352,0.098
3/31/2023 11:46:07.880,0.703,0.34,0.113
3/31/2023 11:46:07.890,0.75,0.344,0.117
3/31/2023 11:46:07.900,0.824,0.363,0.102
3/31/2023 11:46:07.910,0.93,0.387,0.086
3/31/2023 11:46:07.920,1.047,0.418,0.066
3/31/2023 11:46:07.930,1.164,0.438,0.039
3/31/2023 11:46:07.940,1.266,0.445,0.02
3/31/2023 11:46:07.950,1.32,0.457,0.023
3/31/2023 11:46:07.960,1.305,0.461,0.051
3/31/2023 11:46:07.970,1.234,0.457,0.074
3/31/2023 11:46:07.980,1.203,0.469,0.094
3/31/2023 11:46:07.990,1.266,0.48,0.082
3/31/2023 11:46:08.000,1.375,0.488,0.035
3/31/2023 11:46:08.010,1.477,0.477,0
3/31/2023 11:46:08.020,1.508,0.469,-0.016
3/31/2023 11:46:08.030,1.426,0.461,-0.004
3/31/2023 11:46:08.040,1.281,0.48,0.023
3/31/2023 11:46:08.050,1.148,0.535,0.063
3/31/2023 11:46:08.060,1.07,0.605,0.105
3/31/2023 11:46:08.070,1.074,0.688,0.133
3/31/2023 11:46:08.080,1.141,0.711,0.152
3/31/2023 11:46:08.090,1.219,0.68,0.16
3/31/2023 11:46:08.100,1.246,0.605,0.168
3/31/2023 11:46:08.110,1.203,0.531,0.16
3/31/2023 11:46:08.120,1.105,0.473,0.141
3/31/2023 11:46:08.130,0.98,0.434,0.129
3/31/2023 11:46:08.140,0.848,0.387,0.141
3/31/2023 11:46:08.150,0.727,0.32,0.164
3/31/2023 11:46:08.160,0.637,0.234,0.207
3/31/2023 11:46:08.170,0.57,0.145,0.211
3/31/2023 11:46:08.180,0.535,0.086,0.254
3/31/2023 11:46:08.190,0.516,0.043,0.285
3/31/2023 11:46:08.200,0.504,0.039,0.289
3/31/2023 11:46:08.210,0.5,0.113,0.258
3/31/2023 11:46:08.220,0.48,0.207,0.199
3/31/2023 11:46:08.230,0.445,0.297,0.145
3/31/2023 11:46:08.240,0.41,0.371,0.098
3/31/2023 11:46:08.250,0.391,0.434,0.07
3/31/2023 11:46:08.260,0.395,0.477,0.063
3/31/2023 11:46:08.270,0.406,0.504,0.074
3/31/2023 11:46:08.280,0.426,0.516,0.109
3/31/2023 11:46:08.290,0.477,0.512,0.156
3/31/2023 11:46:08.300,0.547,0.508,0.203
3/31/2023 11:46:08.310,0.633,0.508,0.242
3/31/2023 11:46:08.320,0.707,0.516,0.262
3/31/2023 11:46:08.330,0.758,0.512,0.258
3/31/2023 11:46:08.340,0.809,0.496,0.254
3/31/2023 11:46:08.350,0.859,0.473,0.234
3/31/2023 11:46:08.360,0.91,0.453,0.219
3/31/2023 11:46:08.370,0.973,0.445,0.195
3/31/2023 11:46:08.380,1.055,0.457,0.176
3/31/2023 11:46:08.390,1.156,0.484,0.16
3/31/2023 11:46:08.400,1.262,0.527,0.172
3/31/2023 11:46:08.410,1.371,0.57,0.199
3/31/2023 11:46:08.420,1.426,0.59,0.227
3/31/2023 11:46:08.430,1.422,0.594,0.23
3/31/2023 11:46:08.440,1.398,0.602,0.207
3/31/2023 11:46:08.450,1.418,0.637,0.188
3/31/2023 11:46:08.460,1.469,0.711,0.195
3/31/2023 11:46:08.470,1.473,0.789,0.215
3/31/2023 11:46:08.480,1.379,0.844,0.238
3/31/2023 11:46:08.490,1.227,0.852,0.246
3/31/2023 11:46:08.500,1.078,0.84,0.238
3/31/2023 11:46:08.510,1.027,0.813,0.211
3/31/2023 11:46:08.520,1.047,0.75,0.152
3/31/2023 11:46:08.530,1.125,0.656,0.09
3/31/2023 11:46:08.540,1.219,0.551,0.039
3/31/2023 11:46:08.550,1.285,0.445,0.012
3/31/2023 11:46:08.560,1.305,0.367,0.012
3/31/2023 11:46:08.570,1.301,0.332,0.031
3/31/2023 11:46:08.580,1.25,0.32,0.063
3/31/2023 11:46:08.590,1.176,0.332,0.09
3/31/2023 11:46:08.600,1.086,0.332,0.109
3/31/2023 11:46:08.610,0.992,0.336,0.125
3/31/2023 11:46:08.620,0.887,0.332,0.129
3/31/2023 11:46:08.630,0.789,0.332,0.121
3/31/2023 11:46:08.640,0.699,0.344,0.113
3/31/2023 11:46:08.650,0.633,0.359,0.105
3/31/2023 11:46:08.660,0.578,0.387,0.098
3/31/2023 11:46:08.670,0.535,0.402,0.086
3/31/2023 11:46:08.680,0.512,0.41,0.074
3/31/2023 11:46:08.690,0.5,0.41,0.066
3/31/2023 11:46:08.700,0.492,0.41,0.055
3/31/2023 11:46:08.710,0.484,0.422,0.043
3/31/2023 11:46:08.720,0.469,0.426,0.039
3/31/2023 11:46:08.730,0.453,0.422,0.035
3/31/2023 11:46:08.740,0.441,0.414,0.035
3/31/2023 11:46:08.750,0.441,0.395,0.035
3/31/2023 11:46:08.760,0.453,0.375,0.039
3/31/2023 11:46:08.770,0.48,0.348,0.043
3/31/2023 11:46:08.780,0.516,0.324,0.043
3/31/2023 11:46:08.790,0.555,0.32,0.047
3/31/2023 11:46:08.800,0.598,0.316,0.043
3/31/2023 11:46:08.810,0.648,0.328,0.047
3/31/2023 11:46:08.820,0.711,0.355,0.051
3/31/2023 11:46:08.830,0.785,0.367,0.055
3/31/2023 11:46:08.840,0.859,0.387,0.059
3/31/2023 11:46:08.850,0.926,0.402,0.059
3/31/2023 11:46:08.860,0.988,0.422,0.051
3/31/2023 11:46:08.870,1.059,0.441,0.039
3/31/2023 11:46:08.880,1.125,0.469,0.043
3/31/2023 11:46:08.890,1.188,0.484,0.055
3/31/2023 11:46:08.900,1.227,0.496,0.082
3/31/2023 11:46:08.910,1.223,0.5,0.129
3/31/2023 11:46:08.920,1.191,0.488,0.16
3/31/2023 11:46:08.930,1.18,0.48,0.16
3/31/2023 11:46:08.940,1.227,0.477,0.125
3/31/2023 11:46:08.950,1.32,0.461,0.066
3/31/2023 11:46:08.960,1.422,0.445,0.008
3/31/2023 11:46:08.970,1.477,0.43,-0.027
3/31/2023 11:46:08.980,1.438,0.438,-0.016
3/31/2023 11:46:08.990,1.305,0.461,0.031
3/31/2023 11:46:09.000,1.141,0.492,0.082
3/31/2023 11:46:09.010,1.008,0.539,0.145
3/31/2023 11:46:09.020,0.922,0.586,0.191
3/31/2023 11:46:09.030,0.906,0.582,0.227
3/31/2023 11:46:09.040,0.969,0.551,0.238
3/31/2023 11:46:09.050,1.051,0.492,0.246
3/31/2023 11:46:09.060,1.109,0.449,0.227
3/31/2023 11:46:09.070,1.078,0.406,0.195
3/31/2023 11:46:09.080,0.98,0.363,0.164
3/31/2023 11:46:09.090,0.863,0.324,0.129
3/31/2023 11:46:09.100,0.773,0.27,0.133
3/31/2023 11:46:09.110,0.742,0.211,0.203
3/31/2023 11:46:09.120,0.691,0.203,0.215
3/31/2023 11:46:09.130,0.621,0.273,0.359
3/31/2023 11:46:09.140,0.523,0.23,0.434
3/31/2023 11:46:09.150,0.465,0.18,0.398
3/31/2023 11:46:09.160,0.48,0.297,0.309
3/31/2023 11:46:09.170,0.473,0.473,0.18
3/31/2023 11:46:09.180,0.418,0.574,0.07
3/31/2023 11:46:09.190,0.355,0.59,0.035
3/31/2023 11:46:09.200,0.336,0.543,0.07
3/31/2023 11:46:09.210,0.371,0.473,0.117
3/31/2023 11:46:09.220,0.434,0.418,0.164
3/31/2023 11:46:09.230,0.488,0.402,0.203
3/31/2023 11:46:09.240,0.535,0.43,0.215
3/31/2023 11:46:09.250,0.582,0.488,0.215
3/31/2023 11:46:09.260,0.625,0.543,0.211
3/31/2023 11:46:09.270,0.691,0.578,0.203
3/31/2023 11:46:09.280,0.773,0.574,0.207
3/31/2023 11:46:09.290,0.871,0.543,0.203
3/31/2023 11:46:09.300,0.969,0.5,0.199
3/31/2023 11:46:09.310,1.063,0.461,0.176
3/31/2023 11:46:09.320,1.137,0.453,0.152
3/31/2023 11:46:09.330,1.184,0.461,0.137
3/31/2023 11:46:09.340,1.211,0.492,0.129
3/31/2023 11:46:09.350,1.246,0.547,0.133
3/31/2023 11:46:09.360,1.277,0.598,0.141
3/31/2023 11:46:09.370,1.293,0.621,0.16
3/31/2023 11:46:09.380,1.313,0.641,0.168
3/31/2023 11:46:09.390,1.355,0.672,0.168
3/31/2023 11:46:09.400,1.426,0.734,0.172
3/31/2023 11:46:09.410,1.5,0.813,0.176
3/31/2023 11:46:09.420,1.488,0.879,0.18
3/31/2023 11:46:09.430,1.379,0.91,0.176
3/31/2023 11:46:09.440,1.207,0.91,0.16
3/31/2023 11:46:09.450,1.055,0.883,0.141
3/31/2023 11:46:09.460,0.984,0.848,0.125
3/31/2023 11:46:09.470,0.988,0.801,0.109
3/31/2023 11:46:09.480,1.031,0.738,0.086
3/31/2023 11:46:09.490,1.102,0.676,0.066
3/31/2023 11:46:09.500,1.156,0.609,0.051
3/31/2023 11:46:09.510,1.203,0.547,0.059
3/31/2023 11:46:09.520,1.203,0.504,0.07
3/31/2023 11:46:09.530,1.152,0.477,0.094
3/31/2023 11:46:09.540,1.063,0.461,0.121
3/31/2023 11:46:09.550,0.977,0.441,0.145
3/31/2023 11:46:09.560,0.895,0.414,0.168
3/31/2023 11:46:09.570,0.82,0.383,0.191
3/31/2023 11:46:09.580,0.754,0.355,0.203
3/31/2023 11:46:09.590,0.707,0.34,0.203
3/31/2023 11:46:09.600,0.66,0.336,0.188
3/31/2023 11:46:09.610,0.617,0.34,0.168
3/31/2023 11:46:09.620,0.586,0.348,0.148
3/31/2023 11:46:09.630,0.559,0.344,0.133
3/31/2023 11:46:09.640,0.543,0.34,0.117
3/31/2023 11:46:09.650,0.535,0.336,0.109
3/31/2023 11:46:09.660,0.535,0.328,0.102
3/31/2023 11:46:09.670,0.535,0.324,0.094
3/31/2023 11:46:09.680,0.543,0.328,0.098
3/31/2023 11:46:09.690,0.543,0.324,0.102
3/31/2023 11:46:09.700,0.547,0.316,0.105
3/31/2023 11:46:09.710,0.547,0.301,0.105
3/31/2023 11:46:09.720,0.555,0.297,0.105
3/31/2023 11:46:09.730,0.566,0.301,0.098
3/31/2023 11:46:09.740,0.586,0.313,0.102
3/31/2023 11:46:09.750,0.625,0.328,0.094
3/31/2023 11:46:09.760,0.68,0.344,0.086
3/31/2023 11:46:09.770,0.727,0.363,0.082
3/31/2023 11:46:09.780,0.777,0.367,0.074
3/31/2023 11:46:09.790,0.828,0.371,0.074
3/31/2023 11:46:09.800,0.887,0.395,0.074
3/31/2023 11:46:09.810,0.969,0.41,0.063
3/31/2023 11:46:09.820,1.063,0.422,0.047
3/31/2023 11:46:09.830,1.141,0.422,0.043
3/31/2023 11:46:09.840,1.172,0.406,0.055
3/31/2023 11:46:09.850,1.137,0.383,0.082
3/31/2023 11:46:09.860,1.066,0.371,0.137
3/31/2023 11:46:09.870,1.023,0.363,0.168
3/31/2023 11:46:09.880,1.074,0.387,0.152
3/31/2023 11:46:09.890,1.199,0.414,0.113
3/31/2023 11:46:09.900,1.348,0.414,0.055
3/31/2023 11:46:09.910,1.457,0.414,-0.012
3/31/2023 11:46:09.920,1.496,0.414,-0.039
3/31/2023 11:46:09.930,1.41,0.414,-0.039
3/31/2023 11:46:09.940,1.227,0.43,-0.008
3/31/2023 11:46:09.950,1.035,0.473,0.043
3/31/2023 11:46:09.960,0.922,0.543,0.109
3/31/2023 11:46:09.970,0.953,0.625,0.168
3/31/2023 11:46:09.980,1.098,0.68,0.23
3/31/2023 11:46:09.990,1.273,0.684,0.277
3/31/2023 11:46:10.000,1.371,0.645,0.301
3/31/2023 11:46:10.010,1.359,0.57,0.289
3/31/2023 11:46:10.020,1.23,0.496,0.234
3/31/2023 11:46:10.030,1.066,0.438,0.184
3/31/2023 11:46:10.040,0.895,0.363,0.141
3/31/2023 11:46:10.050,0.742,0.277,0.125
3/31/2023 11:46:10.060,0.609,0.18,0.121
3/31/2023 11:46:10.070,0.535,0.109,0.191
3/31/2023 11:46:10.080,0.453,0.086,0.191
3/31/2023 11:46:10.090,0.371,0.121,0.23
3/31/2023 11:46:10.100,0.344,0.137,0.297
3/31/2023 11:46:10.110,0.359,0.164,0.328
3/31/2023 11:46:10.120,0.398,0.242,0.297
3/31/2023 11:46:10.130,0.41,0.348,0.227
3/31/2023 11:46:10.140,0.391,0.426,0.164
3/31/2023 11:46:10.150,0.375,0.461,0.141
3/31/2023 11:46:10.160,0.395,0.477,0.133
3/31/2023 11:46:10.170,0.453,0.496,0.137
3/31/2023 11:46:10.180,0.52,0.523,0.141
3/31/2023 11:46:10.190,0.578,0.555,0.145
3/31/2023 11:46:10.200,0.617,0.578,0.16
3/31/2023 11:46:10.210,0.672,0.582,0.188
3/31/2023 11:46:10.220,0.742,0.578,0.215
3/31/2023 11:46:10.230,0.82,0.563,0.23
3/31/2023 11:46:10.240,0.887,0.531,0.227
3/31/2023 11:46:10.250,0.961,0.504,0.215
3/31/2023 11:46:10.260,1.016,0.48,0.188
3/31/2023 11:46:10.270,1.07,0.484,0.172
3/31/2023 11:46:10.280,1.125,0.523,0.164
3/31/2023 11:46:10.290,1.191,0.59,0.172
3/31/2023 11:46:10.300,1.258,0.656,0.191
3/31/2023 11:46:10.310,1.293,0.695,0.203
3/31/2023 11:46:10.320,1.34,0.707,0.191
3/31/2023 11:46:10.330,1.445,0.727,0.164
3/31/2023 11:46:10.340,1.609,0.777,0.152
3/31/2023 11:46:10.350,1.762,0.859,0.168
3/31/2023 11:46:10.360,1.777,0.938,0.195
3/31/2023 11:46:10.370,1.617,0.973,0.207
3/31/2023 11:46:10.380,1.375,0.938,0.195
3/31/2023 11:46:10.390,1.164,0.867,0.16
3/31/2023 11:46:10.400,1.039,0.785,0.117
3/31/2023 11:46:10.410,1.004,0.707,0.074
3/31/2023 11:46:10.420,1.055,0.629,0.047
3/31/2023 11:46:10.430,1.148,0.578,0.039
3/31/2023 11:46:10.440,1.246,0.535,0.047
3/31/2023 11:46:10.450,1.301,0.504,0.07
3/31/2023 11:46:10.460,1.293,0.473,0.105
3/31/2023 11:46:10.470,1.238,0.445,0.125
3/31/2023 11:46:10.480,1.156,0.426,0.137
3/31/2023 11:46:10.490,1.063,0.406,0.148
3/31/2023 11:46:10.500,0.965,0.375,0.156
3/31/2023 11:46:10.510,0.879,0.352,0.16
3/31/2023 11:46:10.520,0.789,0.344,0.148
3/31/2023 11:46:10.530,0.699,0.352,0.117
3/31/2023 11:46:10.540,0.629,0.348,0.082
3/31/2023 11:46:10.550,0.586,0.355,0.09
3/31/2023 11:46:10.560,0.555,0.34,0.098
3/31/2023 11:46:10.570,0.539,0.32,0.094
3/31/2023 11:46:10.580,0.535,0.32,0.09
3/31/2023 11:46:10.590,0.531,0.34,0.074
3/31/2023 11:46:10.600,0.523,0.336,0.066
3/31/2023 11:46:10.610,0.516,0.328,0.063
3/31/2023 11:46:10.620,0.512,0.309,0.063
3/31/2023 11:46:10.630,0.52,0.289,0.059
3/31/2023 11:46:10.640,0.523,0.273,0.059
3/31/2023 11:46:10.650,0.527,0.258,0.063
3/31/2023 11:46:10.660,0.527,0.25,0.059
3/31/2023 11:46:10.670,0.531,0.254,0.066
3/31/2023 11:46:10.680,0.547,0.266,0.078
3/31/2023 11:46:10.690,0.57,0.285,0.09
3/31/2023 11:46:10.700,0.605,0.316,0.102
3/31/2023 11:46:10.710,0.664,0.355,0.102
3/31/2023 11:46:10.720,0.738,0.391,0.102
3/31/2023 11:46:10.730,0.824,0.414,0.094
3/31/2023 11:46:10.740,0.906,0.43,0.098
3/31/2023 11:46:10.750,0.992,0.445,0.098
3/31/2023 11:46:10.760,1.086,0.453,0.09
3/31/2023 11:46:10.770,1.199,0.449,0.082
3/31/2023 11:46:10.780,1.305,0.43,0.078
3/31/2023 11:46:10.790,1.367,0.391,0.082
3/31/2023 11:46:10.800,1.367,0.344,0.098
3/31/2023 11:46:10.810,1.328,0.305,0.094
3/31/2023 11:46:10.820,1.32,0.309,0.063
3/31/2023 11:46:10.830,1.383,0.352,0.023
3/31/2023 11:46:10.840,1.465,0.406,-0.016
3/31/2023 11:46:10.850,1.523,0.434,-0.043
3/31/2023 11:46:10.860,1.504,0.441,-0.047
3/31/2023 11:46:10.870,1.391,0.449,-0.027
3/31/2023 11:46:10.880,1.242,0.469,-0.004
3/31/2023 11:46:10.890,1.117,0.512,0.023
3/31/2023 11:46:10.900,1.059,0.574,0.043
3/31/2023 11:46:10.910,1.082,0.617,0.055
3/31/2023 11:46:10.920,1.148,0.613,0.066
3/31/2023 11:46:10.930,1.219,0.555,0.07
3/31/2023 11:46:10.940,1.234,0.492,0.07
3/31/2023 11:46:10.950,1.18,0.438,0.063
3/31/2023 11:46:10.960,1.07,0.406,0.047
3/31/2023 11:46:10.970,0.941,0.391,0.027
3/31/2023 11:46:10.980,0.797,0.359,-0.02
3/31/2023 11:46:10.990,0.703,0.309,0.082
3/31/2023 11:46:11.000,0.656,0.273,0.145
3/31/2023 11:46:11.010,0.602,0.344,0.188
3/31/2023 11:46:11.020,0.547,0.438,0.328
3/31/2023 11:46:11.030,0.5,0.375,0.363
3/31/2023 11:46:11.040,0.504,0.316,0.313
3/31/2023 11:46:11.050,0.527,0.402,0.203
3/31/2023 11:46:11.060,0.484,0.48,0.074
3/31/2023 11:46:11.070,0.41,0.5,-0.016
3/31/2023 11:46:11.080,0.348,0.473,-0.043
3/31/2023 11:46:11.090,0.328,0.434,-0.016
3/31/2023 11:46:11.100,0.355,0.418,0.023
3/31/2023 11:46:11.110,0.41,0.434,0.063
3/31/2023 11:46:11.120,0.48,0.457,0.102
3/31/2023 11:46:11.130,0.543,0.512,0.129
3/31/2023 11:46:11.140,0.59,0.559,0.156
3/31/2023 11:46:11.150,0.621,0.582,0.172
3/31/2023 11:46:11.160,0.652,0.574,0.184
3/31/2023 11:46:11.170,0.699,0.547,0.18
3/31/2023 11:46:11.180,0.77,0.516,0.16
3/31/2023 11:46:11.190,0.867,0.492,0.125
3/31/2023 11:46:11.200,0.969,0.484,0.09
3/31/2023 11:46:11.210,1.055,0.488,0.063
3/31/2023 11:46:11.220,1.133,0.5,0.043
3/31/2023 11:46:11.230,1.207,0.531,0.043
3/31/2023 11:46:11.240,1.273,0.574,0.066
3/31/2023 11:46:11.250,1.313,0.617,0.117
3/31/2023 11:46:11.260,1.309,0.637,0.152
3/31/2023 11:46:11.270,1.297,0.648,0.164
3/31/2023 11:46:11.280,1.332,0.676,0.168
3/31/2023 11:46:11.290,1.418,0.75,0.18
3/31/2023 11:46:11.300,1.504,0.84,0.203
3/31/2023 11:46:11.310,1.508,0.922,0.23
3/31/2023 11:46:11.320,1.41,0.969,0.238
3/31/2023 11:46:11.330,1.266,0.945,0.23
3/31/2023 11:46:11.340,1.156,0.895,0.207
3/31/2023 11:46:11.350,1.117,0.828,0.148
3/31/2023 11:46:11.360,1.145,0.75,0.086
3/31/2023 11:46:11.370,1.203,0.66,0.02
3/31/2023 11:46:11.380,1.258,0.563,-0.031
3/31/2023 11:46:11.390,1.281,0.473,-0.051
3/31/2023 11:46:11.400,1.27,0.41,-0.043
3/31/2023 11:46:11.410,1.203,0.371,-0.023
3/31/2023 11:46:11.420,1.121,0.344,0.012
3/31/2023 11:46:11.430,1.031,0.316,0.047
3/31/2023 11:46:11.440,0.938,0.297,0.082
3/31/2023 11:46:11.450,0.84,0.277,0.105
3/31/2023 11:46:11.460,0.75,0.273,0.121
3/31/2023 11:46:11.470,0.664,0.277,0.121
3/31/2023 11:46:11.480,0.602,0.301,0.102
3/31/2023 11:46:11.490,0.57,0.336,0.086
3/31/2023 11:46:11.500,0.543,0.359,0.074
3/31/2023 11:46:11.510,0.543,0.371,0.063
3/31/2023 11:46:11.520,0.535,0.387,0.047
3/31/2023 11:46:11.530,0.535,0.402,0.031
3/31/2023 11:46:11.540,0.547,0.422,0.016
3/31/2023 11:46:11.550,0.547,0.434,0.004
3/31/2023 11:46:11.560,0.559,0.434,-0.008
3/31/2023 11:46:11.570,0.566,0.414,-0.008
3/31/2023 11:46:11.580,0.59,0.383,-0.004
3/31/2023 11:46:11.590,0.625,0.348,0.004
3/31/2023 11:46:11.600,0.656,0.324,0
3/31/2023 11:46:11.610,0.695,0.309,-0.004
3/31/2023 11:46:11.620,0.742,0.301,0.004
3/31/2023 11:46:11.630,0.785,0.293,0.004
3/31/2023 11:46:11.640,0.828,0.289,0.012
3/31/2023 11:46:11.650,0.855,0.277,0.023
3/31/2023 11:46:11.660,0.883,0.273,0.027
3/31/2023 11:46:11.670,0.934,0.289,0.027
3/31/2023 11:46:11.680,1.004,0.305,0.023
3/31/2023 11:46:11.690,1.082,0.324,0.012
3/31/2023 11:46:11.700,1.168,0.34,0
3/31/2023 11:46:11.710,1.246,0.355,-0.004
3/31/2023 11:46:11.720,1.297,0.344,-0.02
3/31/2023 11:46:11.730,1.289,0.336,-0.023
3/31/2023 11:46:11.740,1.219,0.328,-0.02
3/31/2023 11:46:11.750,1.148,0.328,0.004
3/31/2023 11:46:11.760,1.168,0.359,0.023
3/31/2023 11:46:11.770,1.281,0.418,0.027
3/31/2023 11:46:11.780,1.418,0.457,-0.008
3/31/2023 11:46:11.790,1.504,0.445,-0.047
3/31/2023 11:46:11.800,1.48,0.406,-0.059
3/31/2023 11:46:11.810,1.352,0.363,-0.051
3/31/2023 11:46:11.820,1.199,0.375,-0.012
3/31/2023 11:46:11.830,1.098,0.461,0.043
3/31/2023 11:46:11.840,1.082,0.582,0.105
3/31/2023 11:46:11.850,1.156,0.668,0.16
3/31/2023 11:46:11.860,1.285,0.691,0.199
3/31/2023 11:46:11.870,1.383,0.609,0.203
3/31/2023 11:46:11.880,1.379,0.488,0.168
3/31/2023 11:46:11.890,1.281,0.359,0.117
3/31/2023 11:46:11.900,1.137,0.262,0.078
3/31/2023 11:46:11.910,0.988,0.203,0.066
3/31/2023 11:46:11.920,0.863,0.164,0.09
3/31/2023 11:46:11.930,0.773,0.137,0.133
3/31/2023 11:46:11.940,0.711,0.125,0.18
3/31/2023 11:46:11.950,0.703,0.145,0.238
3/31/2023 11:46:11.960,0.66,0.176,0.258
3/31/2023 11:46:11.970,0.59,0.188,0.234
3/31/2023 11:46:11.980,0.535,0.195,0.199
3/31/2023 11:46:11.990,0.508,0.242,0.176
3/31/2023 11:46:12.000,0.465,0.285,0.148
3/31/2023 11:46:12.010,0.441,0.32,0.121
3/31/2023 11:46:12.020,0.418,0.363,0.102
3/31/2023 11:46:12.030,0.395,0.402,0.102
3/31/2023 11:46:12.040,0.371,0.438,0.102
3/31/2023 11:46:12.050,0.367,0.465,0.102
3/31/2023 11:46:12.060,0.395,0.48,0.109
3/31/2023 11:46:12.070,0.453,0.504,0.137
3/31/2023 11:46:12.080,0.539,0.516,0.168
3/31/2023 11:46:12.090,0.625,0.52,0.18
3/31/2023 11:46:12.100,0.691,0.52,0.18
3/31/2023 11:46:12.110,0.742,0.504,0.18
3/31/2023 11:46:12.120,0.797,0.457,0.172
3/31/2023 11:46:12.130,0.867,0.422,0.148
3/31/2023 11:46:12.140,0.957,0.402,0.125
3/31/2023 11:46:12.150,1.07,0.398,0.105
3/31/2023 11:46:12.160,1.188,0.398,0.094
3/31/2023 11:46:12.170,1.266,0.406,0.086
3/31/2023 11:46:12.180,1.301,0.426,0.098
3/31/2023 11:46:12.190,1.293,0.457,0.105
3/31/2023 11:46:12.200,1.254,0.484,0.113
3/31/2023 11:46:12.210,1.23,0.535,0.121
3/31/2023 11:46:12.220,1.27,0.609,0.133
3/31/2023 11:46:12.230,1.367,0.727,0.156
3/31/2023 11:46:12.240,1.473,0.859,0.188
3/31/2023 11:46:12.250,1.531,0.965,0.203
3/31/2023 11:46:12.260,1.5,0.992,0.188
3/31/2023 11:46:12.270,1.41,0.934,0.172
3/31/2023 11:46:12.280,1.309,0.84,0.129
3/31/2023 11:46:12.290,1.23,0.727,0.078
3/31/2023 11:46:12.300,1.188,0.641,0.043
3/31/2023 11:46:12.310,1.152,0.555,0.016
3/31/2023 11:46:12.320,1.133,0.477,0
3/31/2023 11:46:12.330,1.109,0.387,0.004
3/31/2023 11:46:12.340,1.086,0.297,0.027
3/31/2023 11:46:12.350,1.059,0.23,0.047
3/31/2023 11:46:12.360,1.016,0.203,0.07
3/31/2023 11:46:12.370,0.945,0.223,0.07
3/31/2023 11:46:12.380,0.852,0.258,0.07
3/31/2023 11:46:12.390,0.754,0.297,0.082
3/31/2023 11:46:12.400,0.672,0.336,0.102
3/31/2023 11:46:12.410,0.613,0.375,0.109
3/31/2023 11:46:12.420,0.586,0.414,0.121
3/31/2023 11:46:12.430,0.574,0.441,0.133
3/31/2023 11:46:12.440,0.559,0.465,0.133
3/31/2023 11:46:12.450,0.531,0.457,0.121
3/31/2023 11:46:12.460,0.508,0.426,0.113
3/31/2023 11:46:12.470,0.48,0.379,0.094
3/31/2023 11:46:12.480,0.461,0.332,0.078
3/31/2023 11:46:12.490,0.453,0.289,0.082
3/31/2023 11:46:12.500,0.445,0.266,0.078
3/31/2023 11:46:12.510,0.453,0.262,0.074
3/31/2023 11:46:12.520,0.453,0.27,0.074
3/31/2023 11:46:12.530,0.461,0.277,0.086
3/31/2023 11:46:12.540,0.48,0.277,0.094
3/31/2023 11:46:12.550,0.512,0.281,0.102
3/31/2023 11:46:12.560,0.555,0.293,0.102
3/31/2023 11:46:12.570,0.609,0.309,0.094
3/31/2023 11:46:12.580,0.676,0.324,0.082
3/31/2023 11:46:12.590,0.734,0.344,0.074
3/31/2023 11:46:12.600,0.789,0.355,0.082
3/31/2023 11:46:12.610,0.859,0.375,0.082
3/31/2023 11:46:12.620,0.945,0.395,0.07
3/31/2023 11:46:12.630,1.051,0.426,0.063
3/31/2023 11:46:12.640,1.152,0.453,0.055
3/31/2023 11:46:12.650,1.238,0.461,0.047
3/31/2023 11:46:12.660,1.297,0.465,0.031
3/31/2023 11:46:12.670,1.336,0.465,0.031
3/31/2023 11:46:12.680,1.328,0.457,0.043
3/31/2023 11:46:12.690,1.277,0.457,0.07
3/31/2023 11:46:12.700,1.215,0.477,0.117
3/31/2023 11:46:12.710,1.211,0.52,0.168
3/31/2023 11:46:12.720,1.273,0.559,0.195
3/31/2023 11:46:12.730,1.379,0.566,0.191
3/31/2023 11:46:12.740,1.469,0.531,0.156
3/31/2023 11:46:12.750,1.484,0.438,0.102
3/31/2023 11:46:12.760,1.41,0.359,0.055
3/31/2023 11:46:12.770,1.277,0.332,0.047
3/31/2023 11:46:12.780,1.105,0.352,0.07
3/31/2023 11:46:12.790,0.941,0.422,0.121
3/31/2023 11:46:12.800,0.809,0.508,0.18
3/31/2023 11:46:12.810,0.754,0.547,0.23
3/31/2023 11:46:12.820,0.809,0.539,0.262
3/31/2023 11:46:12.830,0.945,0.484,0.273
3/31/2023 11:46:12.840,1.059,0.414,0.266
3/31/2023 11:46:12.850,1.07,0.344,0.23
3/31/2023 11:46:12.860,0.98,0.297,0.184
3/31/2023 11:46:12.870,0.859,0.27,0.152
3/31/2023 11:46:12.880,0.754,0.254,0.137
3/31/2023 11:46:12.890,0.684,0.234,0.145
3/31/2023 11:46:12.900,0.633,0.211,0.172
3/31/2023 11:46:12.910,0.582,0.195,0.199
3/31/2023 11:46:12.920,0.535,0.219,0.207
3/31/2023 11:46:12.930,0.496,0.266,0.219
3/31/2023 11:46:12.940,0.457,0.313,0.215
3/31/2023 11:46:12.950,0.418,0.348,0.215
3/31/2023 11:46:12.960,0.383,0.355,0.207
3/31/2023 11:46:12.970,0.371,0.344,0.195
3/31/2023 11:46:12.980,0.383,0.352,0.184
3/31/2023 11:46:12.990,0.41,0.367,0.188
3/31/2023 11:46:13.000,0.43,0.395,0.195
3/31/2023 11:46:13.010,0.461,0.414,0.215
3/31/2023 11:46:13.020,0.508,0.422,0.23
3/31/2023 11:46:13.030,0.563,0.43,0.242
3/31/2023 11:46:13.040,0.637,0.449,0.254
3/31/2023 11:46:13.050,0.723,0.465,0.266
3/31/2023 11:46:13.060,0.809,0.461,0.273
3/31/2023 11:46:13.070,0.883,0.445,0.27
3/31/2023 11:46:13.080,0.949,0.43,0.258
3/31/2023 11:46:13.090,1.016,0.414,0.238
3/31/2023 11:46:13.100,1.09,0.406,0.215
3/31/2023 11:46:13.110,1.168,0.422,0.191
3/31/2023 11:46:13.120,1.246,0.457,0.184
3/31/2023 11:46:13.130,1.316,0.512,0.172
3/31/2023 11:46:13.140,1.359,0.543,0.172
3/31/2023 11:46:13.150,1.383,0.547,0.172
3/31/2023 11:46:13.160,1.41,0.543,0.168
3/31/2023 11:46:13.170,1.461,0.578,0.172
3/31/2023 11:46:13.180,1.523,0.66,0.191
3/31/2023 11:46:13.190,1.535,0.746,0.223
3/31/2023 11:46:13.200,1.469,0.816,0.25
3/31/2023 11:46:13.210,1.359,0.863,0.27
3/31/2023 11:46:13.220,1.238,0.875,0.258
3/31/2023 11:46:13.230,1.148,0.848,0.223
3/31/2023 11:46:13.240,1.117,0.762,0.168
3/31/2023 11:46:13.250,1.113,0.645,0.109
3/31/2023 11:46:13.260,1.137,0.531,0.051
3/31/2023 11:46:13.270,1.156,0.441,0.012
3/31/2023 11:46:13.280,1.18,0.371,0.004
3/31/2023 11:46:13.290,1.184,0.336,0.016
3/31/2023 11:46:13.300,1.16,0.316,0.051
3/31/2023 11:46:13.310,1.113,0.328,0.102
3/31/2023 11:46:13.320,1.031,0.316,0.145
3/31/2023 11:46:13.330,0.93,0.293,0.176
3/31/2023 11:46:13.340,0.832,0.266,0.184
3/31/2023 11:46:13.350,0.738,0.254,0.176
3/31/2023 11:46:13.360,0.656,0.262,0.16
3/31/2023 11:46:13.370,0.582,0.285,0.137
3/31/2023 11:46:13.380,0.523,0.313,0.121
3/31/2023 11:46:13.390,0.477,0.336,0.113
3/31/2023 11:46:13.400,0.449,0.355,0.113
3/31/2023 11:46:13.410,0.453,0.363,0.125
3/31/2023 11:46:13.420,0.473,0.359,0.133
3/31/2023 11:46:13.430,0.488,0.352,0.137
3/31/2023 11:46:13.440,0.5,0.332,0.141
3/31/2023 11:46:13.450,0.508,0.301,0.145
3/31/2023 11:46:13.460,0.512,0.285,0.133
3/31/2023 11:46:13.470,0.523,0.281,0.117
3/31/2023 11:46:13.480,0.527,0.281,0.109
3/31/2023 11:46:13.490,0.547,0.285,0.105
3/31/2023 11:46:13.500,0.574,0.297,0.113
3/31/2023 11:46:13.510,0.641,0.309,0.129
3/31/2023 11:46:13.520,0.723,0.32,0.125
3/31/2023 11:46:13.530,0.793,0.32,0.121
3/31/2023 11:46:13.540,0.855,0.32,0.105
3/31/2023 11:46:13.550,0.891,0.301,0.078
3/31/2023 11:46:13.560,0.922,0.305,0.035
3/31/2023 11:46:13.570,0.992,0.328,-0.008
3/31/2023 11:46:13.580,1.117,0.367,-0.031
3/31/2023 11:46:13.590,1.27,0.402,-0.035
3/31/2023 11:46:13.600,1.379,0.418,-0.027
3/31/2023 11:46:13.610,1.41,0.402,-0.012
3/31/2023 11:46:13.620,1.352,0.387,0.016
3/31/2023 11:46:13.630,1.258,0.391,0.031
3/31/2023 11:46:13.640,1.227,0.422,0.02
3/31/2023 11:46:13.650,1.309,0.465,-0.012
3/31/2023 11:46:13.660,1.457,0.488,-0.043
3/31/2023 11:46:13.670,1.594,0.461,-0.082
3/31/2023 11:46:13.680,1.656,0.41,-0.098
3/31/2023 11:46:13.690,1.574,0.379,-0.07
3/31/2023 11:46:13.700,1.367,0.387,-0.027
3/31/2023 11:46:13.710,1.121,0.43,0.023
3/31/2023 11:46:13.720,0.914,0.516,0.094
3/31/2023 11:46:13.730,0.801,0.621,0.164
3/31/2023 11:46:13.740,0.82,0.672,0.203
3/31/2023 11:46:13.750,0.941,0.648,0.223
3/31/2023 11:46:13.760,1.078,0.551,0.223
3/31/2023 11:46:13.770,1.141,0.434,0.203
3/31/2023 11:46:13.780,1.09,0.32,0.172
3/31/2023 11:46:13.790,0.977,0.262,0.156
3/31/2023 11:46:13.800,0.855,0.211,0.152
3/31/2023 11:46:13.810,0.746,0.176,0.105
3/31/2023 11:46:13.820,0.648,0.16,0.215
3/31/2023 11:46:13.830,0.582,-0.016,0.348
3/31/2023 11:46:13.840,0.578,-0.121,0.441
3/31/2023 11:46:13.850,0.586,-0.059,0.426
3/31/2023 11:46:13.860,0.563,0.074,0.332
3/31/2023 11:46:13.870,0.488,0.219,0.223
3/31/2023 11:46:13.880,0.418,0.332,0.156
3/31/2023 11:46:13.890,0.371,0.402,0.125
3/31/2023 11:46:13.900,0.363,0.43,0.105
3/31/2023 11:46:13.910,0.398,0.422,0.098
3/31/2023 11:46:13.920,0.457,0.414,0.098
3/31/2023 11:46:13.930,0.512,0.414,0.09
3/31/2023 11:46:13.940,0.566,0.418,0.102
3/31/2023 11:46:13.950,0.621,0.43,0.129
3/31/2023 11:46:13.960,0.684,0.441,0.148
3/31/2023 11:46:13.970,0.738,0.449,0.172
3/31/2023 11:46:13.980,0.785,0.449,0.195
3/31/2023 11:46:13.990,0.844,0.426,0.215
3/31/2023 11:46:14.000,0.91,0.375,0.227
3/31/2023 11:46:14.010,1.008,0.32,0.238
3/31/2023 11:46:14.020,1.098,0.305,0.227
3/31/2023 11:46:14.030,1.168,0.316,0.195
3/31/2023 11:46:14.040,1.199,0.363,0.148
3/31/2023 11:46:14.050,1.203,0.434,0.102
3/31/2023 11:46:14.060,1.207,0.5,0.074
3/31/2023 11:46:14.070,1.223,0.563,0.066
3/31/2023 11:46:14.080,1.242,0.605,0.086
3/31/2023 11:46:14.090,1.285,0.625,0.121
3/31/2023 11:46:14.100,1.367,0.66,0.156
3/31/2023 11:46:14.110,1.461,0.711,0.188
3/31/2023 11:46:14.120,1.516,0.77,0.203
3/31/2023 11:46:14.130,1.48,0.793,0.211
3/31/2023 11:46:14.140,1.383,0.77,0.215
3/31/2023 11:46:14.150,1.277,0.73,0.211
3/31/2023 11:46:14.160,1.203,0.676,0.199
3/31/2023 11:46:14.170,1.176,0.613,0.184
3/31/2023 11:46:14.180,1.16,0.547,0.156
3/31/2023 11:46:14.190,1.156,0.492,0.129
3/31/2023 11:46:14.200,1.164,0.445,0.105
3/31/2023 11:46:14.210,1.184,0.426,0.109
3/31/2023 11:46:14.220,1.191,0.43,0.133
3/31/2023 11:46:14.230,1.172,0.43,0.168
3/31/2023 11:46:14.240,1.109,0.434,0.203
3/31/2023 11:46:14.250,1.023,0.418,0.23
3/31/2023 11:46:14.260,0.914,0.387,0.238
3/31/2023 11:46:14.270,0.813,0.355,0.242
3/31/2023 11:46:14.280,0.719,0.332,0.238
3/31/2023 11:46:14.290,0.645,0.324,0.23
3/31/2023 11:46:14.300,0.594,0.32,0.215
3/31/2023 11:46:14.310,0.559,0.316,0.195
3/31/2023 11:46:14.320,0.535,0.313,0.176
3/31/2023 11:46:14.330,0.523,0.309,0.156
3/31/2023 11:46:14.340,0.512,0.313,0.141
3/31/2023 11:46:14.350,0.5,0.324,0.133
3/31/2023 11:46:14.360,0.484,0.332,0.137
3/31/2023 11:46:14.370,0.473,0.344,0.141
3/31/2023 11:46:14.380,0.461,0.352,0.145
3/31/2023 11:46:14.390,0.461,0.352,0.145
3/31/2023 11:46:14.400,0.488,0.344,0.141
3/31/2023 11:46:14.410,0.52,0.336,0.137
3/31/2023 11:46:14.420,0.566,0.32,0.121
3/31/2023 11:46:14.430,0.605,0.301,0.109
3/31/2023 11:46:14.440,0.652,0.289,0.102
3/31/2023 11:46:14.450,0.699,0.285,0.09
3/31/2023 11:46:14.460,0.75,0.297,0.09
3/31/2023 11:46:14.470,0.82,0.305,0.078
3/31/2023 11:46:14.480,0.906,0.309,0.07
3/31/2023 11:46:14.490,1,0.313,0.051
3/31/2023 11:46:14.500,1.082,0.313,0.027
3/31/2023 11:46:14.510,1.152,0.305,0.016
3/31/2023 11:46:14.520,1.191,0.309,-0.008
3/31/2023 11:46:14.530,1.195,0.324,-0.023
3/31/2023 11:46:14.540,1.164,0.352,-0.02
3/31/2023 11:46:14.550,1.125,0.371,-0.012
3/31/2023 11:46:14.560,1.125,0.387,-0.008
3/31/2023 11:46:14.570,1.219,0.418,-0.004
3/31/2023 11:46:14.580,1.375,0.469,0.004
3/31/2023 11:46:14.590,1.535,0.504,-0.02
3/31/2023 11:46:14.600,1.629,0.531,-0.027
3/31/2023 11:46:14.610,1.609,0.551,-0.027
3/31/2023 11:46:14.620,1.465,0.563,-0.012
3/31/2023 11:46:14.630,1.266,0.578,0.016
3/31/2023 11:46:14.640,1.086,0.617,0.059
3/31/2023 11:46:14.650,0.977,0.668,0.094
3/31/2023 11:46:14.660,0.941,0.676,0.137
3/31/2023 11:46:14.670,0.973,0.629,0.168
3/31/2023 11:46:14.680,1.031,0.539,0.188
3/31/2023 11:46:14.690,1.055,0.422,0.188
3/31/2023 11:46:14.700,1.027,0.316,0.172
3/31/2023 11:46:14.710,0.949,0.234,0.16
3/31/2023 11:46:14.720,0.855,0.176,0.16
3/31/2023 11:46:14.730,0.758,0.137,0.164
3/31/2023 11:46:14.740,0.672,0.098,0.172
3/31/2023 11:46:14.750,0.621,0.078,0.172
3/31/2023 11:46:14.760,0.598,0.09,0.164
3/31/2023 11:46:14.770,0.547,0.125,0.18
3/31/2023 11:46:14.780,0.469,0.109,0.293
3/31/2023 11:46:14.790,0.43,0.027,0.352
3/31/2023 11:46:14.800,0.434,0.051,0.344
3/31/2023 11:46:14.810,0.441,0.184,0.266
3/31/2023 11:46:14.820,0.406,0.332,0.168
3/31/2023 11:46:14.830,0.344,0.434,0.105
3/31/2023 11:46:14.840,0.32,0.496,0.094
3/31/2023 11:46:14.850,0.352,0.512,0.109
3/31/2023 11:46:14.860,0.43,0.508,0.133
3/31/2023 11:46:14.870,0.535,0.492,0.152
3/31/2023 11:46:14.880,0.629,0.484,0.164
3/31/2023 11:46:14.890,0.688,0.484,0.168
3/31/2023 11:46:14.900,0.742,0.488,0.172
3/31/2023 11:46:14.910,0.813,0.492,0.176
3/31/2023 11:46:14.920,0.891,0.504,0.176
3/31/2023 11:46:14.930,0.988,0.5,0.172
3/31/2023 11:46:14.940,1.078,0.477,0.164
3/31/2023 11:46:14.950,1.164,0.453,0.156
3/31/2023 11:46:14.960,1.211,0.445,0.145
3/31/2023 11:46:14.970,1.207,0.461,0.145
3/31/2023 11:46:14.980,1.176,0.508,0.152
3/31/2023 11:46:14.990,1.141,0.57,0.156
3/31/2023 11:46:15.000,1.121,0.633,0.16
3/31/2023 11:46:15.010,1.168,0.68,0.172
3/31/2023 11:46:15.020,1.258,0.73,0.176
3/31/2023 11:46:15.030,1.379,0.789,0.18
3/31/2023 11:46:15.040,1.484,0.852,0.199
3/31/2023 11:46:15.050,1.52,0.91,0.215
3/31/2023 11:46:15.060,1.461,0.93,0.219
3/31/2023 11:46:15.070,1.363,0.914,0.211
3/31/2023 11:46:15.080,1.27,0.883,0.176
3/31/2023 11:46:15.090,1.215,0.832,0.145
3/31/2023 11:46:15.100,1.176,0.766,0.117
3/31/2023 11:46:15.110,1.148,0.684,0.09
3/31/2023 11:46:15.120,1.164,0.598,0.078
3/31/2023 11:46:15.130,1.23,0.527,0.086
3/31/2023 11:46:15.140,1.305,0.473,0.105
3/31/2023 11:46:15.150,1.34,0.434,0.129
3/31/2023 11:46:15.160,1.316,0.41,0.152
3/31/2023 11:46:15.170,1.246,0.406,0.168
3/31/2023 11:46:15.180,1.148,0.391,0.184
3/31/2023 11:46:15.190,1.043,0.367,0.195
3/31/2023 11:46:15.200,0.941,0.344,0.199
3/31/2023 11:46:15.210,0.855,0.34,0.199
3/31/2023 11:46:15.220,0.77,0.34,0.199
3/31/2023 11:46:15.230,0.691,0.336,0.188
3/31/2023 11:46:15.240,0.625,0.34,0.18
3/31/2023 11:46:15.250,0.566,0.352,0.168
3/31/2023 11:46:15.260,0.527,0.367,0.152
3/31/2023 11:46:15.270,0.508,0.383,0.133
3/31/2023 11:46:15.280,0.504,0.387,0.117
3/31/2023 11:46:15.290,0.52,0.383,0.109
3/31/2023 11:46:15.300,0.527,0.375,0.098
3/31/2023 11:46:15.310,0.527,0.355,0.086
3/31/2023 11:46:15.320,0.52,0.344,0.078
3/31/2023 11:46:15.330,0.508,0.328,0.082
3/31/2023 11:46:15.340,0.492,0.316,0.09
3/31/2023 11:46:15.350,0.488,0.297,0.102
3/31/2023 11:46:15.360,0.5,0.285,0.109
3/31/2023 11:46:15.370,0.523,0.281,0.113
3/31/2023 11:46:15.380,0.555,0.273,0.109
3/31/2023 11:46:15.390,0.602,0.277,0.105
3/31/2023 11:46:15.400,0.664,0.289,0.105
3/31/2023 11:46:15.410,0.742,0.297,0.082
3/31/2023 11:46:15.420,0.844,0.309,0.055
3/31/2023 11:46:15.430,0.949,0.324,0.043
3/31/2023 11:46:15.440,1.035,0.336,0.035
3/31/2023 11:46:15.450,1.098,0.363,0.031
3/31/2023 11:46:15.460,1.141,0.391,0.035
3/31/2023 11:46:15.470,1.16,0.41,0.043
3/31/2023 11:46:15.480,1.141,0.426,0.059
3/31/2023 11:46:15.490,1.098,0.422,0.086
3/31/2023 11:46:15.500,1.09,0.414,0.098
3/31/2023 11:46:15.510,1.164,0.41,0.098
3/31/2023 11:46:15.520,1.281,0.41,0.066
3/31/2023 11:46:15.530,1.398,0.395,0.02
3/31/2023 11:46:15.540,1.488,0.395,-0.031
3/31/2023 11:46:15.550,1.508,0.406,-0.043
3/31/2023 11:46:15.560,1.434,0.438,-0.023
3/31/2023 11:46:15.570,1.305,0.488,0.012
3/31/2023 11:46:15.580,1.18,0.566,0.059
3/31/2023 11:46:15.590,1.094,0.645,0.109
3/31/2023 11:46:15.600,1.063,0.699,0.152
3/31/2023 11:46:15.610,1.09,0.723,0.199
3/31/2023 11:46:15.620,1.137,0.699,0.23
3/31/2023 11:46:15.630,1.164,0.656,0.246
3/31/2023 11:46:15.640,1.125,0.605,0.25
3/31/2023 11:46:15.650,1.031,0.563,0.234
3/31/2023 11:46:15.660,0.906,0.523,0.223
3/31/2023 11:46:15.670,0.773,0.457,0.184
3/31/2023 11:46:15.680,0.68,0.363,0.23
3/31/2023 11:46:15.690,0.648,0.203,0.242
3/31/2023 11:46:15.700,0.563,0.191,0.316
3/31/2023 11:46:15.710,0.449,0.141,0.527
3/31/2023 11:46:15.720,0.398,-0.07,0.598
3/31/2023 11:46:15.730,0.449,-0.07,0.574
3/31/2023 11:46:15.740,0.488,0.113,0.434
3/31/2023 11:46:15.750,0.449,0.32,0.27
3/31/2023 11:46:15.760,0.363,0.496,0.129
3/31/2023 11:46:15.770,0.305,0.602,0.059
3/31/2023 11:46:15.780,0.277,0.625,0.063
3/31/2023 11:46:15.790,0.285,0.594,0.109
3/31/2023 11:46:15.800,0.348,0.535,0.152
3/31/2023 11:46:15.810,0.441,0.496,0.18
3/31/2023 11:46:15.820,0.531,0.512,0.203
3/31/2023 11:46:15.830,0.621,0.531,0.207
3/31/2023 11:46:15.840,0.719,0.531,0.191
3/31/2023 11:46:15.850,0.813,0.516,0.18
3/31/2023 11:46:15.860,0.887,0.496,0.164
3/31/2023 11:46:15.870,0.934,0.457,0.152
3/31/2023 11:46:15.880,0.977,0.438,0.145
3/31/2023 11:46:15.890,1.023,0.438,0.148
3/31/2023 11:46:15.900,1.07,0.465,0.156
3/31/2023 11:46:15.910,1.129,0.512,0.172
3/31/2023 11:46:15.920,1.195,0.566,0.191
3/31/2023 11:46:15.930,1.254,0.621,0.207
3/31/2023 11:46:15.940,1.289,0.656,0.203
3/31/2023 11:46:15.950,1.332,0.68,0.184
3/31/2023 11:46:15.960,1.414,0.723,0.16
3/31/2023 11:46:15.970,1.535,0.797,0.156
3/31/2023 11:46:15.980,1.637,0.906,0.168
3/31/2023 11:46:15.990,1.617,0.992,0.191
3/31/2023 11:46:16.000,1.465,1.027,0.207
3/31/2023 11:46:16.010,1.262,0.98,0.215
3/31/2023 11:46:16.020,1.094,0.914,0.215
3/31/2023 11:46:16.030,0.988,0.836,0.195
3/31/2023 11:46:16.040,0.953,0.766,0.16
3/31/2023 11:46:16.050,0.98,0.691,0.129
3/31/2023 11:46:16.060,1.039,0.613,0.102
3/31/2023 11:46:16.070,1.109,0.543,0.098
3/31/2023 11:46:16.080,1.16,0.496,0.109
3/31/2023 11:46:16.090,1.188,0.469,0.125
3/31/2023 11:46:16.100,1.184,0.465,0.141
3/31/2023 11:46:16.110,1.145,0.461,0.16
3/31/2023 11:46:16.120,1.074,0.449,0.172
3/31/2023 11:46:16.130,0.988,0.418,0.18
3/31/2023 11:46:16.140,0.906,0.379,0.195
3/31/2023 11:46:16.150,0.832,0.348,0.195
3/31/2023 11:46:16.160,0.754,0.332,0.184
3/31/2023 11:46:16.170,0.68,0.332,0.176
3/31/2023 11:46:16.180,0.605,0.34,0.168
3/31/2023 11:46:16.190,0.559,0.352,0.16
3/31/2023 11:46:16.200,0.523,0.355,0.16
3/31/2023 11:46:16.210,0.512,0.355,0.148
3/31/2023 11:46:16.220,0.508,0.355,0.145
3/31/2023 11:46:16.230,0.5,0.355,0.133
3/31/2023 11:46:16.240,0.496,0.352,0.117
3/31/2023 11:46:16.250,0.488,0.336,0.113
3/31/2023 11:46:16.260,0.48,0.336,0.109
3/31/2023 11:46:16.270,0.469,0.336,0.102
3/31/2023 11:46:16.280,0.473,0.336,0.094
3/31/2023 11:46:16.290,0.492,0.344,0.09
3/31/2023 11:46:16.300,0.539,0.359,0.094
3/31/2023 11:46:16.310,0.59,0.359,0.098
3/31/2023 11:46:16.320,0.652,0.367,0.102
3/31/2023 11:46:16.330,0.715,0.375,0.105
3/31/2023 11:46:16.340,0.77,0.379,0.098
3/31/2023 11:46:16.350,0.824,0.379,0.094
3/31/2023 11:46:16.360,0.875,0.391,0.09
3/31/2023 11:46:16.370,0.93,0.395,0.082
3/31/2023 11:46:16.380,1.004,0.414,0.078
3/31/2023 11:46:16.390,1.105,0.438,0.078
3/31/2023 11:46:16.400,1.199,0.457,0.086
3/31/2023 11:46:16.410,1.262,0.473,0.105
3/31/2023 11:46:16.420,1.262,0.461,0.145
3/31/2023 11:46:16.430,1.238,0.438,0.164
3/31/2023 11:46:16.440,1.273,0.426,0.145
3/31/2023 11:46:16.450,1.367,0.438,0.094
3/31/2023 11:46:16.460,1.48,0.449,0.031
3/31/2023 11:46:16.470,1.547,0.449,0.008
3/31/2023 11:46:16.480,1.504,0.457,0.012
3/31/2023 11:46:16.490,1.348,0.465,0.039
3/31/2023 11:46:16.500,1.145,0.469,0.094
3/31/2023 11:46:16.510,1.008,0.496,0.137
3/31/2023 11:46:16.520,0.949,0.531,0.16
3/31/2023 11:46:16.530,0.977,0.543,0.176
3/31/2023 11:46:16.540,1.059,0.535,0.191
3/31/2023 11:46:16.550,1.129,0.512,0.207
3/31/2023 11:46:16.560,1.137,0.48,0.211
3/31/2023 11:46:16.570,1.09,0.445,0.219
3/31/2023 11:46:16.580,1.004,0.426,0.215
3/31/2023 11:46:16.590,0.91,0.41,0.207
3/31/2023 11:46:16.600,0.824,0.383,0.207
3/31/2023 11:46:16.610,0.734,0.332,0.199
3/31/2023 11:46:16.620,0.633,0.262,0.16
3/31/2023 11:46:16.630,0.602,0.168,0.246
3/31/2023 11:46:16.640,0.602,0.125,0.23
3/31/2023 11:46:16.650,0.563,0.25,0.262
3/31/2023 11:46:16.660,0.5,0.371,0.402
3/31/2023 11:46:16.670,0.422,0.336,0.438
3/31/2023 11:46:16.680,0.402,0.316,0.398
3/31/2023 11:46:16.690,0.434,0.414,0.309
3/31/2023 11:46:16.700,0.422,0.504,0.203
3/31/2023 11:46:16.710,0.387,0.52,0.117
3/31/2023 11:46:16.720,0.375,0.496,0.09
3/31/2023 11:46:16.730,0.391,0.469,0.102
3/31/2023 11:46:16.740,0.43,0.449,0.129
3/31/2023 11:46:16.750,0.488,0.457,0.145
3/31/2023 11:46:16.760,0.563,0.484,0.168
3/31/2023 11:46:16.770,0.617,0.523,0.176
3/31/2023 11:46:16.780,0.668,0.551,0.176
3/31/2023 11:46:16.790,0.723,0.559,0.168
3/31/2023 11:46:16.800,0.785,0.539,0.156
3/31/2023 11:46:16.810,0.852,0.492,0.129
3/31/2023 11:46:16.820,0.938,0.449,0.105
3/31/2023 11:46:16.830,1.031,0.426,0.074
3/31/2023 11:46:16.840,1.121,0.418,0.051
3/31/2023 11:46:16.850,1.207,0.441,0.039
3/31/2023 11:46:16.860,1.262,0.477,0.051
3/31/2023 11:46:16.870,1.262,0.52,0.07
3/31/2023 11:46:16.880,1.219,0.559,0.105
3/31/2023 11:46:16.890,1.168,0.594,0.141
3/31/2023 11:46:16.900,1.152,0.621,0.164
3/31/2023 11:46:16.910,1.203,0.66,0.188
3/31/2023 11:46:16.920,1.328,0.742,0.211
3/31/2023 11:46:16.930,1.457,0.863,0.242
3/31/2023 11:46:16.940,1.516,0.973,0.27
3/31/2023 11:46:16.950,1.473,1.035,0.285
3/31/2023 11:46:16.960,1.363,1.035,0.277
3/31/2023 11:46:16.970,1.281,0.984,0.25
3/31/2023 11:46:16.980,1.234,0.902,0.199
3/31/2023 11:46:16.990,1.195,0.797,0.129
3/31/2023 11:46:17.000,1.156,0.68,0.059
3/31/2023 11:46:17.010,1.156,0.566,0.012
3/31/2023 11:46:17.020,1.18,0.465,-0.016
3/31/2023 11:46:17.030,1.207,0.387,0.004
3/31/2023 11:46:17.040,1.191,0.348,0.047
3/31/2023 11:46:17.050,1.125,0.324,0.109
3/31/2023 11:46:17.060,1.027,0.293,0.168
3/31/2023 11:46:17.070,0.926,0.266,0.211
3/31/2023 11:46:17.080,0.832,0.234,0.238
3/31/2023 11:46:17.090,0.754,0.227,0.246
3/31/2023 11:46:17.100,0.68,0.234,0.227
3/31/2023 11:46:17.110,0.613,0.258,0.207
3/31/2023 11:46:17.120,0.563,0.285,0.18
3/31/2023 11:46:17.130,0.523,0.328,0.156
3/31/2023 11:46:17.140,0.496,0.363,0.148
3/31/2023 11:46:17.150,0.473,0.391,0.137
3/31/2023 11:46:17.160,0.461,0.402,0.117
3/31/2023 11:46:17.170,0.465,0.418,0.105
3/31/2023 11:46:17.180,0.473,0.43,0.094
3/31/2023 11:46:17.190,0.48,0.434,0.078
3/31/2023 11:46:17.200,0.488,0.43,0.07
3/31/2023 11:46:17.210,0.48,0.41,0.066
3/31/2023 11:46:17.220,0.461,0.391,0.07
3/31/2023 11:46:17.230,0.453,0.359,0.074
3/31/2023 11:46:17.240,0.461,0.324,0.074
3/31/2023 11:46:17.250,0.488,0.309,0.07
3/31/2023 11:46:17.260,0.535,0.301,0.059
3/31/2023 11:46:17.270,0.594,0.305,0.043
3/31/2023 11:46:17.280,0.668,0.32,0.035
3/31/2023 11:46:17.290,0.762,0.348,0.027
3/31/2023 11:46:17.300,0.891,0.383,0.008
3/31/2023 11:46:17.310,1.051,0.418,0.004
3/31/2023 11:46:17.320,1.215,0.449,0.016
3/31/2023 11:46:17.330,1.34,0.449,0.039
3/31/2023 11:46:17.340,1.402,0.422,0.051
3/31/2023 11:46:17.350,1.379,0.379,0.035
3/31/2023 11:46:17.360,1.305,0.34,0.02
3/31/2023 11:46:17.370,1.234,0.313,-0.004
3/31/2023 11:46:17.380,1.254,0.316,-0.047
3/31/2023 11:46:17.390,1.379,0.359,-0.078
3/31/2023 11:46:17.400,1.543,0.426,-0.078
3/31/2023 11:46:17.410,1.664,0.473,-0.047
3/31/2023 11:46:17.420,1.637,0.504,0.008
3/31/2023 11:46:17.430,1.477,0.516,0.059
3/31/2023 11:46:17.440,1.27,0.523,0.109
3/31/2023 11:46:17.450,1.094,0.523,0.141
3/31/2023 11:46:17.460,1.012,0.543,0.141
3/31/2023 11:46:17.470,1.02,0.547,0.133
3/31/2023 11:46:17.480,1.094,0.527,0.133
3/31/2023 11:46:17.490,1.164,0.461,0.145
3/31/2023 11:46:17.500,1.176,0.391,0.152
3/31/2023 11:46:17.510,1.137,0.332,0.148
3/31/2023 11:46:17.520,1.043,0.301,0.129
3/31/2023 11:46:17.530,0.934,0.281,0.113
3/31/2023 11:46:17.540,0.832,0.277,0.109
3/31/2023 11:46:17.550,0.746,0.277,0.125
3/31/2023 11:46:17.560,0.695,0.273,0.148
3/31/2023 11:46:17.570,0.664,0.27,0.18
3/31/2023 11:46:17.580,0.641,0.273,0.195
3/31/2023 11:46:17.590,0.613,0.293,0.188
3/31/2023 11:46:17.600,0.57,0.328,0.18
3/31/2023 11:46:17.610,0.527,0.352,0.176
3/31/2023 11:46:17.620,0.488,0.348,0.176
3/31/2023 11:46:17.630,0.453,0.344,0.176
3/31/2023 11:46:17.640,0.414,0.355,0.172
3/31/2023 11:46:17.650,0.383,0.363,0.168
3/31/2023 11:46:17.660,0.344,0.371,0.172
3/31/2023 11:46:17.670,0.332,0.375,0.18
3/31/2023 11:46:17.680,0.344,0.375,0.203
3/31/2023 11:46:17.690,0.375,0.383,0.23
3/31/2023 11:46:17.700,0.418,0.402,0.25
3/31/2023 11:46:17.710,0.48,0.422,0.266
3/31/2023 11:46:17.720,0.555,0.441,0.285
3/31/2023 11:46:17.730,0.629,0.453,0.301
3/31/2023 11:46:17.740,0.723,0.449,0.293
3/31/2023 11:46:17.750,0.824,0.418,0.273
3/31/2023 11:46:17.760,0.922,0.387,0.246
3/31/2023 11:46:17.770,0.996,0.375,0.203
3/31/2023 11:46:17.780,1.066,0.402,0.148
3/31/2023 11:46:17.790,1.133,0.465,0.105
3/31/2023 11:46:17.800,1.203,0.531,0.082
3/31/2023 11:46:17.810,1.266,0.574,0.078
3/31/2023 11:46:17.820,1.32,0.586,0.102
3/31/2023 11:46:17.830,1.359,0.578,0.109
3/31/2023 11:46:17.840,1.414,0.57,0.102
3/31/2023 11:46:17.850,1.527,0.621,0.105
3/31/2023 11:46:17.860,1.684,0.734,0.141
3/31/2023 11:46:17.870,1.785,0.887,0.195
3/31/2023 11:46:17.880,1.738,0.988,0.227
3/31/2023 11:46:17.890,1.582,0.988,0.215
3/31/2023 11:46:17.900,1.418,0.902,0.16
3/31/2023 11:46:17.910,1.313,0.789,0.09
3/31/2023 11:46:17.920,1.258,0.676,0.031
3/31/2023 11:46:17.930,1.23,0.586,-0.016
3/31/2023 11:46:17.940,1.215,0.504,-0.047
3/31/2023 11:46:17.950,1.199,0.434,-0.043
3/31/2023 11:46:17.960,1.184,0.375,0.02
3/31/2023 11:46:17.970,1.133,0.32,0.078
3/31/2023 11:46:17.980,1.059,0.289,0.07
3/31/2023 11:46:17.990,0.953,0.336,0.047
3/31/2023 11:46:18.000,0.84,0.395,0.07
3/31/2023 11:46:18.010,0.746,0.363,0.141
3/31/2023 11:46:18.020,0.691,0.254,0.215
3/31/2023 11:46:18.030,0.652,0.145,0.289
3/31/2023 11:46:18.040,0.629,0.055,0.34
3/31/2023 11:46:18.050,0.594,0,0.359
3/31/2023 11:46:18.060,0.555,-0.016,0.355
3/31/2023 11:46:18.070,0.488,0.031,0.332
3/31/2023 11:46:18.080,0.441,0.094,0.281
3/31/2023 11:46:18.090,0.418,0.16,0.219
3/31/2023 11:46:18.100,0.414,0.246,0.172
3/31/2023 11:46:18.110,0.418,0.324,0.133
3/31/2023 11:46:18.120,0.43,0.367,0.102
3/31/2023 11:46:18.130,0.441,0.395,0.082
3/31/2023 11:46:18.140,0.469,0.41,0.059
3/31/2023 11:46:18.150,0.492,0.43,0.039
3/31/2023 11:46:18.160,0.516,0.434,0.023
3/31/2023 11:46:18.170,0.535,0.445,0.008
3/31/2023 11:46:18.180,0.563,0.441,0.004
3/31/2023 11:46:18.190,0.609,0.434,0.012
3/31/2023 11:46:18.200,0.672,0.422,0.035
3/31/2023 11:46:18.210,0.758,0.398,0.047
3/31/2023 11:46:18.220,0.848,0.387,0.059
3/31/2023 11:46:18.230,0.941,0.379,0.078
3/31/2023 11:46:18.240,1.047,0.371,0.086
3/31/2023 11:46:18.250,1.141,0.363,0.094
3/31/2023 11:46:18.260,1.23,0.363,0.102
3/31/2023 11:46:18.270,1.281,0.367,0.09
3/31/2023 11:46:18.280,1.277,0.367,0.074
3/31/2023 11:46:18.290,1.207,0.344,0.055
3/31/2023 11:46:18.300,1.152,0.309,0.043
3/31/2023 11:46:18.310,1.199,0.281,0.016
3/31/2023 11:46:18.320,1.363,0.289,-0.016
3/31/2023 11:46:18.330,1.563,0.324,-0.031
3/31/2023 11:46:18.340,1.707,0.371,-0.023
3/31/2023 11:46:18.350,1.656,0.406,-0.004
3/31/2023 11:46:18.360,1.465,0.441,0.016
3/31/2023 11:46:18.370,1.242,0.5,0.031
3/31/2023 11:46:18.380,1.098,0.609,0.055
3/31/2023 11:46:18.390,1.09,0.734,0.082
3/31/2023 11:46:18.400,1.203,0.785,0.113
3/31/2023 11:46:18.410,1.344,0.719,0.152
3/31/2023 11:46:18.420,1.43,0.555,0.184
3/31/2023 11:46:18.430,1.395,0.391,0.195
3/31/2023 11:46:18.440,1.25,0.273,0.176
3/31/2023 11:46:18.450,1.07,0.207,0.152
3/31/2023 11:46:18.460,0.91,0.18,0.137
3/31/2023 11:46:18.470,0.801,0.172,0.141
3/31/2023 11:46:18.480,0.734,0.172,0.164
3/31/2023 11:46:18.490,0.691,0.152,0.203
3/31/2023 11:46:18.500,0.648,0.145,0.223
3/31/2023 11:46:18.510,0.629,0.156,0.242
3/31/2023 11:46:18.520,0.563,0.172,0.234
3/31/2023 11:46:18.530,0.473,0.18,0.324
3/31/2023 11:46:18.540,0.406,0.094,0.418
3/31/2023 11:46:18.550,0.383,-0.012,0.457
3/31/2023 11:46:18.560,0.395,-0.004,0.438
3/31/2023 11:46:18.570,0.383,0.094,0.367
3/31/2023 11:46:18.580,0.344,0.223,0.285
3/31/2023 11:46:18.590,0.305,0.344,0.223
3/31/2023 11:46:18.600,0.297,0.43,0.195
3/31/2023 11:46:18.610,0.328,0.488,0.195
3/31/2023 11:46:18.620,0.375,0.516,0.203
3/31/2023 11:46:18.630,0.438,0.52,0.203
3/31/2023 11:46:18.640,0.5,0.516,0.195
3/31/2023 11:46:18.650,0.57,0.508,0.184
3/31/2023 11:46:18.660,0.652,0.496,0.18
3/31/2023 11:46:18.670,0.746,0.48,0.184
3/31/2023 11:46:18.680,0.836,0.465,0.172
3/31/2023 11:46:18.690,0.934,0.434,0.156
3/31/2023 11:46:18.700,1.02,0.402,0.145
3/31/2023 11:46:18.710,1.102,0.355,0.125
3/31/2023 11:46:18.720,1.172,0.336,0.125
3/31/2023 11:46:18.730,1.238,0.352,0.133
3/31/2023 11:46:18.740,1.266,0.371,0.152
3/31/2023 11:46:18.750,1.234,0.414,0.168
3/31/2023 11:46:18.760,1.176,0.477,0.18
3/31/2023 11:46:18.770,1.148,0.543,0.184
3/31/2023 11:46:18.780,1.223,0.621,0.191
3/31/2023 11:46:18.790,1.379,0.734,0.207
3/31/2023 11:46:18.800,1.539,0.871,0.242
3/31/2023 11:46:18.810,1.633,0.992,0.285
3/31/2023 11:46:18.820,1.582,1.055,0.32
3/31/2023 11:46:18.830,1.43,1.043,0.316
3/31/2023 11:46:18.840,1.273,0.973,0.27
3/31/2023 11:46:18.850,1.191,0.875,0.199
3/31/2023 11:46:18.860,1.184,0.754,0.125
3/31/2023 11:46:18.870,1.211,0.621,0.066
3/31/2023 11:46:18.880,1.242,0.492,0.027
3/31/2023 11:46:18.890,1.25,0.383,0.023
3/31/2023 11:46:18.900,1.215,0.301,0.039
3/31/2023 11:46:18.910,1.156,0.254,0.07
3/31/2023 11:46:18.920,1.09,0.238,0.121
3/31/2023 11:46:18.930,0.996,0.227,0.164
3/31/2023 11:46:18.940,0.902,0.211,0.199
3/31/2023 11:46:18.950,0.809,0.215,0.215
3/31/2023 11:46:18.960,0.727,0.234,0.223
3/31/2023 11:46:18.970,0.656,0.262,0.223
3/31/2023 11:46:18.980,0.594,0.309,0.223
3/31/2023 11:46:18.990,0.547,0.355,0.215
3/31/2023 11:46:19.000,0.492,0.406,0.199
3/31/2023 11:46:19.010,0.457,0.445,0.188
3/31/2023 11:46:19.020,0.434,0.488,0.168
3/31/2023 11:46:19.030,0.426,0.508,0.152
3/31/2023 11:46:19.040,0.426,0.496,0.145
3/31/2023 11:46:19.050,0.43,0.469,0.125
3/31/2023 11:46:19.060,0.438,0.445,0.117
3/31/2023 11:46:19.070,0.438,0.418,0.109
3/31/2023 11:46:19.080,0.434,0.387,0.113
3/31/2023 11:46:19.090,0.426,0.344,0.125
3/31/2023 11:46:19.100,0.434,0.32,0.133
3/31/2023 11:46:19.110,0.453,0.313,0.137
3/31/2023 11:46:19.120,0.488,0.309,0.148
3/31/2023 11:46:19.130,0.531,0.316,0.152
3/31/2023 11:46:19.140,0.582,0.316,0.148
3/31/2023 11:46:19.150,0.637,0.32,0.148
3/31/2023 11:46:19.160,0.711,0.344,0.145
3/31/2023 11:46:19.170,0.813,0.363,0.129
3/31/2023 11:46:19.180,0.945,0.391,0.113
3/31/2023 11:46:19.190,1.102,0.41,0.09
3/31/2023 11:46:19.200,1.246,0.422,0.07
3/31/2023 11:46:19.210,1.336,0.438,0.051
3/31/2023 11:46:19.220,1.344,0.441,0.047
3/31/2023 11:46:19.230,1.273,0.445,0.051
3/31/2023 11:46:19.240,1.191,0.449,0.063
3/31/2023 11:46:19.250,1.195,0.473,0.066
3/31/2023 11:46:19.260,1.32,0.508,0.051
3/31/2023 11:46:19.270,1.5,0.531,0.031
3/31/2023 11:46:19.280,1.648,0.539,0.023
3/31/2023 11:46:19.290,1.695,0.543,0.047
3/31/2023 11:46:19.300,1.57,0.547,0.066
3/31/2023 11:46:19.310,1.352,0.559,0.086
3/31/2023 11:46:19.320,1.137,0.59,0.117
3/31/2023 11:46:19.330,1.004,0.629,0.145
3/31/2023 11:46:19.340,0.965,0.66,0.18
3/31/2023 11:46:19.350,1.008,0.641,0.207
3/31/2023 11:46:19.360,1.09,0.57,0.23
3/31/2023 11:46:19.370,1.156,0.473,0.242
3/31/2023 11:46:19.380,1.145,0.391,0.246
3/31/2023 11:46:19.390,1.07,0.324,0.234
3/31/2023 11:46:19.400,0.961,0.281,0.219
3/31/2023 11:46:19.410,0.832,0.246,0.215
3/31/2023 11:46:19.420,0.719,0.211,0.207
3/31/2023 11:46:19.430,0.621,0.18,0.203
3/31/2023 11:46:19.440,0.563,0.176,0.207
3/31/2023 11:46:19.450,0.523,0.184,0.184
3/31/2023 11:46:19.460,0.5,0.227,0.191
3/31/2023 11:46:19.470,0.473,0.258,0.227
3/31/2023 11:46:19.480,0.457,0.25,0.242
3/31/2023 11:46:19.490,0.465,0.277,0.219
3/31/2023 11:46:19.500,0.445,0.344,0.164
3/31/2023 11:46:19.510,0.422,0.402,0.113
3/31/2023 11:46:19.520,0.387,0.418,0.082
3/31/2023 11:46:19.530,0.387,0.414,0.09
3/31/2023 11:46:19.540,0.43,0.41,0.121
3/31/2023 11:46:19.550,0.5,0.418,0.148
3/31/2023 11:46:19.560,0.563,0.434,0.18
3/31/2023 11:46:19.570,0.617,0.465,0.207
3/31/2023 11:46:19.580,0.656,0.496,0.234
3/31/2023 11:46:19.590,0.695,0.512,0.254
3/31/2023 11:46:19.600,0.75,0.508,0.254
3/31/2023 11:46:19.610,0.809,0.484,0.246
3/31/2023 11:46:19.620,0.855,0.445,0.227
3/31/2023 11:46:19.630,0.898,0.414,0.188
3/31/2023 11:46:19.640,0.941,0.402,0.148
3/31/2023 11:46:19.650,0.992,0.418,0.109
3/31/2023 11:46:19.660,1.059,0.453,0.102
3/31/2023 11:46:19.670,1.113,0.496,0.113
3/31/2023 11:46:19.680,1.145,0.547,0.129
3/31/2023 11:46:19.690,1.152,0.578,0.152
3/31/2023 11:46:19.700,1.168,0.613,0.164
3/31/2023 11:46:19.710,1.23,0.648,0.141
3/31/2023 11:46:19.720,1.379,0.703,0.109
3/31/2023 11:46:19.730,1.594,0.789,0.098
3/31/2023 11:46:19.740,1.809,0.898,0.129
3/31/2023 11:46:19.750,1.898,0.984,0.176
3/31/2023 11:46:19.760,1.762,0.992,0.203
3/31/2023 11:46:19.770,1.5,0.945,0.199
3/31/2023 11:46:19.780,1.238,0.867,0.172
3/31/2023 11:46:19.790,1.074,0.809,0.141
3/31/2023 11:46:19.800,1.016,0.738,0.09
3/31/2023 11:46:19.810,1.039,0.656,0.039
3/31/2023 11:46:19.820,1.102,0.547,0.016
3/31/2023 11:46:19.830,1.168,0.434,0.023
3/31/2023 11:46:19.840,1.195,0.34,0.051
3/31/2023 11:46:19.850,1.16,0.289,0.086
3/31/2023 11:46:19.860,1.098,0.285,0.125
3/31/2023 11:46:19.870,1.023,0.305,0.16
3/31/2023 11:46:19.880,0.938,0.32,0.191
3/31/2023 11:46:19.890,0.859,0.32,0.211
3/31/2023 11:46:19.900,0.785,0.309,0.23
3/31/2023 11:46:19.910,0.723,0.293,0.234
3/31/2023 11:46:19.920,0.656,0.289,0.219
3/31/2023 11:46:19.930,0.594,0.301,0.188
3/31/2023 11:46:19.940,0.535,0.328,0.16
3/31/2023 11:46:19.950,0.48,0.348,0.145
3/31/2023 11:46:19.960,0.438,0.348,0.125
3/31/2023 11:46:19.970,0.414,0.352,0.109
3/31/2023 11:46:19.980,0.402,0.355,0.105
3/31/2023 11:46:19.990,0.406,0.348,0.098
3/31/2023 11:46:20.000,0.398,0.344,0.098
3/31/2023 11:46:20.010,0.41,0.324,0.102
3/31/2023 11:46:20.020,0.41,0.313,0.094
3/31/2023 11:46:20.030,0.426,0.305,0.078
3/31/2023 11:46:20.040,0.445,0.297,0.07
3/31/2023 11:46:20.050,0.461,0.301,0.066
3/31/2023 11:46:20.060,0.488,0.305,0.074
3/31/2023 11:46:20.070,0.523,0.309,0.074
3/31/2023 11:46:20.080,0.566,0.328,0.07
3/31/2023 11:46:20.090,0.613,0.355,0.078
3/31/2023 11:46:20.100,0.684,0.367,0.082
3/31/2023 11:46:20.110,0.754,0.371,0.078
3/31/2023 11:46:20.120,0.852,0.371,0.078
3/31/2023 11:46:20.130,0.945,0.387,0.07
3/31/2023 11:46:20.140,1.043,0.402,0.063
3/31/2023 11:46:20.150,1.148,0.414,0.063
3/31/2023 11:46:20.160,1.227,0.43,0.066
3/31/2023 11:46:20.170,1.27,0.441,0.07
3/31/2023 11:46:20.180,1.254,0.449,0.086
3/31/2023 11:46:20.190,1.188,0.449,0.094
3/31/2023 11:46:20.200,1.141,0.449,0.098
3/31/2023 11:46:20.210,1.191,0.453,0.086
3/31/2023 11:46:20.220,1.332,0.465,0.063
3/31/2023 11:46:20.230,1.504,0.488,0.031
3/31/2023 11:46:20.240,1.633,0.504,0.016
3/31/2023 11:46:20.250,1.641,0.516,0.027
3/31/2023 11:46:20.260,1.496,0.523,0.051
3/31/2023 11:46:20.270,1.285,0.543,0.078
3/31/2023 11:46:20.280,1.086,0.59,0.121
3/31/2023 11:46:20.290,0.957,0.645,0.172
3/31/2023 11:46:20.300,0.914,0.672,0.215
3/31/2023 11:46:20.310,0.941,0.633,0.246
3/31/2023 11:46:20.320,1.035,0.559,0.277
3/31/2023 11:46:20.330,1.113,0.477,0.301
3/31/2023 11:46:20.340,1.113,0.398,0.285
3/31/2023 11:46:20.350,1.027,0.328,0.25
3/31/2023 11:46:20.360,0.914,0.281,0.223
3/31/2023 11:46:20.370,0.805,0.238,0.195
3/31/2023 11:46:20.380,0.707,0.211,0.184
3/31/2023 11:46:20.390,0.633,0.195,0.188
3/31/2023 11:46:20.400,0.578,0.195,0.176
3/31/2023 11:46:20.410,0.527,0.219,0.195
3/31/2023 11:46:20.420,0.477,0.223,0.219
3/31/2023 11:46:20.430,0.445,0.234,0.234
3/31/2023 11:46:20.440,0.441,0.281,0.219
3/31/2023 11:46:20.450,0.426,0.336,0.195
3/31/2023 11:46:20.460,0.406,0.359,0.168
3/31/2023 11:46:20.470,0.402,0.383,0.152
3/31/2023 11:46:20.480,0.422,0.402,0.152
3/31/2023 11:46:20.490,0.461,0.414,0.168
3/31/2023 11:46:20.500,0.5,0.434,0.184
3/31/2023 11:46:20.510,0.547,0.457,0.203
3/31/2023 11:46:20.520,0.598,0.48,0.215
3/31/2023 11:46:20.530,0.652,0.488,0.227
3/31/2023 11:46:20.540,0.715,0.48,0.23
3/31/2023 11:46:20.550,0.773,0.473,0.223
3/31/2023 11:46:20.560,0.828,0.453,0.219
3/31/2023 11:46:20.570,0.875,0.43,0.211
3/31/2023 11:46:20.580,0.93,0.418,0.195
3/31/2023 11:46:20.590,0.984,0.422,0.176
3/31/2023 11:46:20.600,1.059,0.453,0.156
3/31/2023 11:46:20.610,1.145,0.508,0.141
3/31/2023 11:46:20.620,1.215,0.57,0.137
3/31/2023 11:46:20.630,1.246,0.625,0.141
3/31/2023 11:46:20.640,1.215,0.648,0.16
3/31/2023 11:46:20.650,1.168,0.641,0.16
3/31/2023 11:46:20.660,1.184,0.648,0.152
3/31/2023 11:46:20.670,1.293,0.691,0.152
3/31/2023 11:46:20.680,1.457,0.758,0.164
3/31/2023 11:46:20.690,1.578,0.824,0.184
3/31/2023 11:46:20.700,1.605,0.867,0.215
3/31/2023 11:46:20.710,1.504,0.867,0.238
3/31/2023 11:46:20.720,1.34,0.836,0.23
3/31/2023 11:46:20.730,1.211,0.801,0.199
3/31/2023 11:46:20.740,1.137,0.766,0.16
3/31/2023 11:46:20.750,1.109,0.719,0.121
3/31/2023 11:46:20.760,1.137,0.66,0.098
3/31/2023 11:46:20.770,1.184,0.594,0.086
3/31/2023 11:46:20.780,1.23,0.523,0.086
3/31/2023 11:46:20.790,1.238,0.461,0.102
3/31/2023 11:46:20.800,1.203,0.426,0.113
3/31/2023 11:46:20.810,1.129,0.41,0.133
3/31/2023 11:46:20.820,1.023,0.395,0.141
3/31/2023 11:46:20.830,0.918,0.371,0.148
3/31/2023 11:46:20.840,0.828,0.344,0.156
3/31/2023 11:46:20.850,0.742,0.328,0.152
3/31/2023 11:46:20.860,0.672,0.32,0.148
3/31/2023 11:46:20.870,0.613,0.324,0.145
3/31/2023 11:46:20.880,0.566,0.332,0.137
3/31/2023 11:46:20.890,0.52,0.344,0.125
3/31/2023 11:46:20.900,0.477,0.363,0.113
3/31/2023 11:46:20.910,0.449,0.371,0.105
3/31/2023 11:46:20.920,0.441,0.371,0.102
3/31/2023 11:46:20.930,0.441,0.375,0.09
3/31/2023 11:46:20.940,0.449,0.375,0.082
3/31/2023 11:46:20.950,0.453,0.371,0.078
3/31/2023 11:46:20.960,0.461,0.352,0.074
3/31/2023 11:46:20.970,0.457,0.336,0.074
3/31/2023 11:46:20.980,0.469,0.324,0.078
3/31/2023 11:46:20.990,0.5,0.313,0.078
3/31/2023 11:46:21.000,0.531,0.313,0.07
3/31/2023 11:46:21.010,0.574,0.313,0.082
3/31/2023 11:46:21.020,0.625,0.328,0.09
3/31/2023 11:46:21.030,0.688,0.348,0.086
3/31/2023 11:46:21.040,0.773,0.367,0.086
3/31/2023 11:46:21.050,0.871,0.391,0.09
3/31/2023 11:46:21.060,0.953,0.41,0.094
3/31/2023 11:46:21.070,1.016,0.426,0.098
3/31/2023 11:46:21.080,1.07,0.438,0.09
3/31/2023 11:46:21.090,1.137,0.441,0.078
3/31/2023 11:46:21.100,1.203,0.445,0.066
3/31/2023 11:46:21.110,1.234,0.441,0.066
3/31/2023 11:46:21.120,1.227,0.418,0.074
3/31/2023 11:46:21.130,1.227,0.387,0.078
3/31/2023 11:46:21.140,1.27,0.371,0.059
3/31/2023 11:46:21.150,1.348,0.383,0.023
3/31/2023 11:46:21.160,1.434,0.414,-0.008
3/31/2023 11:46:21.170,1.488,0.457,-0.023
3/31/2023 11:46:21.180,1.473,0.504,0
3/31/2023 11:46:21.190,1.363,0.543,0.039
3/31/2023 11:46:21.200,1.219,0.582,0.086
3/31/2023 11:46:21.210,1.098,0.637,0.133
3/31/2023 11:46:21.220,1.027,0.707,0.16
3/31/2023 11:46:21.230,1.016,0.762,0.191
3/31/2023 11:46:21.240,1.031,0.77,0.207
3/31/2023 11:46:21.250,1.066,0.711,0.23
3/31/2023 11:46:21.260,1.109,0.633,0.234
3/31/2023 11:46:21.270,1.109,0.566,0.227
3/31/2023 11:46:21.280,1.059,0.523,0.199
3/31/2023 11:46:21.290,0.984,0.492,0.184
3/31/2023 11:46:21.300,0.891,0.461,0.184
3/31/2023 11:46:21.310,0.801,0.41,0.199
3/31/2023 11:46:21.320,0.723,0.34,0.215
3/31/2023 11:46:21.330,0.664,0.273,0.23
3/31/2023 11:46:21.340,0.609,0.215,0.273
3/31/2023 11:46:21.350,0.563,0.125,0.316
3/31/2023 11:46:21.360,0.535,0.074,0.332
3/31/2023 11:46:21.370,0.508,0.105,0.309
3/31/2023 11:46:21.380,0.457,0.164,0.258
3/31/2023 11:46:21.390,0.41,0.215,0.219
3/31/2023 11:46:21.400,0.387,0.266,0.191
3/31/2023 11:46:21.410,0.387,0.32,0.176
3/31/2023 11:46:21.420,0.398,0.371,0.152
3/31/2023 11:46:21.430,0.414,0.414,0.141
3/31/2023 11:46:21.440,0.422,0.445,0.133
3/31/2023 11:46:21.450,0.434,0.484,0.137
3/31/2023 11:46:21.460,0.457,0.52,0.145
3/31/2023 11:46:21.470,0.512,0.535,0.164
3/31/2023 11:46:21.480,0.578,0.527,0.191
3/31/2023 11:46:21.490,0.664,0.508,0.211
3/31/2023 11:46:21.500,0.75,0.48,0.219
3/31/2023 11:46:21.510,0.859,0.449,0.227
3/31/2023 11:46:21.520,0.953,0.426,0.223
3/31/2023 11:46:21.530,1.043,0.426,0.215
3/31/2023 11:46:21.540,1.129,0.453,0.184
3/31/2023 11:46:21.550,1.195,0.504,0.141
3/31/2023 11:46:21.560,1.242,0.57,0.113
3/31/2023 11:46:21.570,1.273,0.621,0.098
3/31/2023 11:46:21.580,1.281,0.637,0.102
3/31/2023 11:46:21.590,1.281,0.637,0.105
3/31/2023 11:46:21.600,1.297,0.641,0.113
3/31/2023 11:46:21.610,1.367,0.691,0.141
3/31/2023 11:46:21.620,1.434,0.766,0.184
3/31/2023 11:46:21.630,1.445,0.828,0.215
3/31/2023 11:46:21.640,1.375,0.852,0.242
3/31/2023 11:46:21.650,1.254,0.836,0.258
3/31/2023 11:46:21.660,1.164,0.813,0.246
3/31/2023 11:46:21.670,1.113,0.797,0.215
3/31/2023 11:46:21.680,1.102,0.77,0.18
3/31/2023 11:46:21.690,1.113,0.727,0.125
3/31/2023 11:46:21.700,1.133,0.664,0.082
3/31/2023 11:46:21.710,1.164,0.605,0.055
3/31/2023 11:46:21.720,1.184,0.559,0.047
3/31/2023 11:46:21.730,1.18,0.516,0.074
3/31/2023 11:46:21.740,1.137,0.496,0.109
3/31/2023 11:46:21.750,1.059,0.465,0.156
3/31/2023 11:46:21.760,0.953,0.414,0.191
3/31/2023 11:46:21.770,0.852,0.367,0.223
3/31/2023 11:46:21.780,0.758,0.324,0.242
3/31/2023 11:46:21.790,0.676,0.293,0.246
3/31/2023 11:46:21.800,0.617,0.281,0.246
3/31/2023 11:46:21.810,0.566,0.289,0.23
3/31/2023 11:46:21.820,0.527,0.293,0.219
3/31/2023 11:46:21.830,0.504,0.301,0.199
3/31/2023 11:46:21.840,0.488,0.305,0.188
3/31/2023 11:46:21.850,0.48,0.309,0.172
3/31/2023 11:46:21.860,0.469,0.32,0.16
3/31/2023 11:46:21.870,0.461,0.344,0.145
3/31/2023 11:46:21.880,0.453,0.359,0.129
3/31/2023 11:46:21.890,0.441,0.363,0.129
3/31/2023 11:46:21.900,0.441,0.355,0.125
3/31/2023 11:46:21.910,0.449,0.34,0.121
3/31/2023 11:46:21.920,0.469,0.336,0.117
3/31/2023 11:46:21.930,0.504,0.336,0.109
3/31/2023 11:46:21.940,0.543,0.352,0.102
3/31/2023 11:46:21.950,0.598,0.352,0.098
3/31/2023 11:46:21.960,0.66,0.359,0.098
3/31/2023 11:46:21.970,0.727,0.371,0.098
3/31/2023 11:46:21.980,0.816,0.375,0.094
3/31/2023 11:46:21.990,0.906,0.391,0.09
3/31/2023 11:46:22.000,0.996,0.402,0.078
3/31/2023 11:46:22.010,1.105,0.414,0.07
3/31/2023 11:46:22.020,1.219,0.438,0.066
3/31/2023 11:46:22.030,1.309,0.469,0.078
3/31/2023 11:46:22.040,1.332,0.488,0.102
3/31/2023 11:46:22.050,1.273,0.5,0.137
3/31/2023 11:46:22.060,1.164,0.492,0.184
3/31/2023 11:46:22.070,1.07,0.477,0.207
3/31/2023 11:46:22.080,1.07,0.453,0.18
3/31/2023 11:46:22.090,1.172,0.426,0.121
3/31/2023 11:46:22.100,1.332,0.395,0.043
3/31/2023 11:46:22.110,1.48,0.379,-0.031
3/31/2023 11:46:22.120,1.563,0.406,-0.055
3/31/2023 11:46:22.130,1.516,0.457,-0.031
3/31/2023 11:46:22.140,1.344,0.5,0.012
3/31/2023 11:46:22.150,1.137,0.547,0.074
3/31/2023 11:46:22.160,0.957,0.594,0.137
3/31/2023 11:46:22.170,0.863,0.641,0.184
3/31/2023 11:46:22.180,0.852,0.648,0.207
3/31/2023 11:46:22.190,0.938,0.617,0.215
3/31/2023 11:46:22.200,1.047,0.563,0.223
3/31/2023 11:46:22.210,1.117,0.508,0.234
3/31/2023 11:46:22.220,1.09,0.457,0.223
3/31/2023 11:46:22.230,1,0.418,0.215
3/31/2023 11:46:22.240,0.883,0.379,0.215
3/31/2023 11:46:22.250,0.777,0.34,0.223
3/31/2023 11:46:22.260,0.684,0.285,0.219
3/31/2023 11:46:22.270,0.598,0.227,0.203
3/31/2023 11:46:22.280,0.52,0.18,0.195
3/31/2023 11:46:22.290,0.434,0.152,0.172
3/31/2023 11:46:22.300,0.359,0.137,0.227
3/31/2023 11:46:22.310,0.328,0.09,0.27
3/31/2023 11:46:22.320,0.359,0.125,0.285
3/31/2023 11:46:22.330,0.395,0.234,0.246
3/31/2023 11:46:22.340,0.398,0.355,0.188
3/31/2023 11:46:22.350,0.371,0.457,0.148
3/31/2023 11:46:22.360,0.359,0.512,0.133
3/31/2023 11:46:22.370,0.383,0.523,0.145
3/31/2023 11:46:22.380,0.445,0.512,0.164
3/31/2023 11:46:22.390,0.504,0.5,0.188
3/31/2023 11:46:22.400,0.543,0.484,0.203
3/31/2023 11:46:22.410,0.59,0.48,0.219
3/31/2023 11:46:22.420,0.637,0.488,0.219
3/31/2023 11:46:22.430,0.699,0.496,0.215
3/31/2023 11:46:22.440,0.789,0.492,0.207
3/31/2023 11:46:22.450,0.902,0.484,0.195
3/31/2023 11:46:22.460,1.016,0.473,0.184
3/31/2023 11:46:22.470,1.105,0.461,0.176
3/31/2023 11:46:22.480,1.172,0.465,0.172
3/31/2023 11:46:22.490,1.203,0.484,0.16
3/31/2023 11:46:22.500,1.203,0.535,0.133
3/31/2023 11:46:22.510,1.203,0.586,0.109
3/31/2023 11:46:22.520,1.211,0.621,0.086
3/31/2023 11:46:22.530,1.262,0.652,0.063
3/31/2023 11:46:22.540,1.363,0.703,0.074
3/31/2023 11:46:22.550,1.48,0.801,0.109
3/31/2023 11:46:22.560,1.559,0.922,0.176
3/31/2023 11:46:22.570,1.551,1.023,0.23
3/31/2023 11:46:22.580,1.445,1.051,0.254
3/31/2023 11:46:22.590,1.316,1.008,0.23
3/31/2023 11:46:22.600,1.227,0.906,0.184
3/31/2023 11:46:22.610,1.168,0.785,0.121
3/31/2023 11:46:22.620,1.137,0.664,0.066
3/31/2023 11:46:22.630,1.148,0.559,0.035
3/31/2023 11:46:22.640,1.207,0.488,0.031
3/31/2023 11:46:22.650,1.277,0.453,0.051
3/31/2023 11:46:22.660,1.324,0.449,0.09
3/31/2023 11:46:22.670,1.309,0.461,0.129
3/31/2023 11:46:22.680,1.234,0.473,0.16
3/31/2023 11:46:22.690,1.129,0.461,0.191
3/31/2023 11:46:22.700,1.016,0.438,0.215
3/31/2023 11:46:22.710,0.914,0.406,0.23
3/31/2023 11:46:22.720,0.824,0.387,0.23
3/31/2023 11:46:22.730,0.723,0.383,0.215
3/31/2023 11:46:22.740,0.641,0.387,0.195
3/31/2023 11:46:22.750,0.563,0.391,0.18
3/31/2023 11:46:22.760,0.516,0.391,0.16
3/31/2023 11:46:22.770,0.484,0.402,0.145
3/31/2023 11:46:22.780,0.469,0.41,0.133
3/31/2023 11:46:22.790,0.465,0.41,0.137
3/31/2023 11:46:22.800,0.473,0.395,0.148
3/31/2023 11:46:22.810,0.48,0.363,0.16
3/31/2023 11:46:22.820,0.477,0.344,0.16
3/31/2023 11:46:22.830,0.469,0.328,0.152
3/31/2023 11:46:22.840,0.461,0.316,0.137
3/31/2023 11:46:22.850,0.461,0.301,0.125
3/31/2023 11:46:22.860,0.477,0.293,0.113
3/31/2023 11:46:22.870,0.508,0.297,0.109
3/31/2023 11:46:22.880,0.539,0.301,0.105
3/31/2023 11:46:22.890,0.582,0.301,0.094
3/31/2023 11:46:22.900,0.633,0.301,0.086
3/31/2023 11:46:22.910,0.688,0.309,0.086
3/31/2023 11:46:22.920,0.75,0.336,0.09
3/31/2023 11:46:22.930,0.816,0.379,0.09
3/31/2023 11:46:22.940,0.879,0.41,0.086
3/31/2023 11:46:22.950,0.957,0.449,0.082
3/31/2023 11:46:22.960,1.039,0.473,0.086
3/31/2023 11:46:22.970,1.105,0.488,0.09
3/31/2023 11:46:22.980,1.133,0.496,0.098
3/31/2023 11:46:22.990,1.098,0.488,0.121
3/31/2023 11:46:23.000,1.031,0.449,0.137
3/31/2023 11:46:23.010,1.039,0.414,0.133
3/31/2023 11:46:23.020,1.129,0.398,0.098
3/31/2023 11:46:23.030,1.254,0.391,0.043
3/31/2023 11:46:23.040,1.367,0.379,-0.008
3/31/2023 11:46:23.050,1.418,0.379,-0.043
3/31/2023 11:46:23.060,1.371,0.391,-0.047
3/31/2023 11:46:23.070,1.254,0.418,-0.031
3/31/2023 11:46:23.080,1.129,0.477,0.004
3/31/2023 11:46:23.090,1.051,0.531,0.039
3/31/2023 11:46:23.100,1.051,0.602,0.07
3/31/2023 11:46:23.110,1.102,0.633,0.113
3/31/2023 11:46:23.120,1.188,0.621,0.156
3/31/2023 11:46:23.130,1.242,0.598,0.168
3/31/2023 11:46:23.140,1.234,0.59,0.172
3/31/2023 11:46:23.150,1.156,0.586,0.156
3/31/2023 11:46:23.160,1.051,0.563,0.145
3/31/2023 11:46:23.170,0.941,0.52,0.137
3/31/2023 11:46:23.180,0.82,0.453,0.105
3/31/2023 11:46:23.190,0.754,0.371,0.184
3/31/2023 11:46:23.200,0.703,0.281,0.203
3/31/2023 11:46:23.210,0.617,0.289,0.277
3/31/2023 11:46:23.220,0.539,0.191,0.406
3/31/2023 11:46:23.230,0.539,0.07,0.461
3/31/2023 11:46:23.240,0.578,0.117,0.441
3/31/2023 11:46:23.250,0.57,0.234,0.328
3/31/2023 11:46:23.260,0.508,0.367,0.199
3/31/2023 11:46:23.270,0.438,0.473,0.109
3/31/2023 11:46:23.280,0.398,0.52,0.063
3/31/2023 11:46:23.290,0.395,0.523,0.063
3/31/2023 11:46:23.300,0.422,0.496,0.082
3/31/2023 11:46:23.310,0.465,0.465,0.113
3/31/2023 11:46:23.320,0.508,0.453,0.148
3/31/2023 11:46:23.330,0.57,0.461,0.184
3/31/2023 11:46:23.340,0.648,0.473,0.207
3/31/2023 11:46:23.350,0.738,0.484,0.215
3/31/2023 11:46:23.360,0.82,0.465,0.211
3/31/2023 11:46:23.370,0.887,0.43,0.199
3/31/2023 11:46:23.380,0.926,0.383,0.176
3/31/2023 11:46:23.390,0.953,0.34,0.145
3/31/2023 11:46:23.400,0.992,0.32,0.113
3/31/2023 11:46:23.410,1.063,0.336,0.086
3/31/2023 11:46:23.420,1.156,0.391,0.066
3/31/2023 11:46:23.430,1.262,0.465,0.063
3/31/2023 11:46:23.440,1.324,0.535,0.094
3/31/2023 11:46:23.450,1.316,0.574,0.133
3/31/2023 11:46:23.460,1.266,0.586,0.141
3/31/2023 11:46:23.470,1.27,0.625,0.145
3/31/2023 11:46:23.480,1.379,0.73,0.156
3/31/2023 11:46:23.490,1.527,0.875,0.176
3/31/2023 11:46:23.500,1.598,0.996,0.199
3/31/2023 11:46:23.510,1.539,1.035,0.227
3/31/2023 11:46:23.520,1.406,1.004,0.242
3/31/2023 11:46:23.530,1.281,0.926,0.227
3/31/2023 11:46:23.540,1.215,0.844,0.188
3/31/2023 11:46:23.550,1.184,0.77,0.129
3/31/2023 11:46:23.560,1.172,0.691,0.074
3/31/2023 11:46:23.570,1.152,0.602,0.031
3/31/2023 11:46:23.580,1.152,0.52,0.02
3/31/2023 11:46:23.590,1.164,0.457,0.027
3/31/2023 11:46:23.600,1.176,0.41,0.055
3/31/2023 11:46:23.610,1.164,0.383,0.094
3/31/2023 11:46:23.620,1.117,0.359,0.133
3/31/2023 11:46:23.630,1.047,0.336,0.16
3/31/2023 11:46:23.640,0.973,0.316,0.184
3/31/2023 11:46:23.650,0.898,0.309,0.199
3/31/2023 11:46:23.660,0.828,0.313,0.207
3/31/2023 11:46:23.670,0.766,0.324,0.207
3/31/2023 11:46:23.680,0.688,0.332,0.207
3/31/2023 11:46:23.690,0.629,0.332,0.195
3/31/2023 11:46:23.700,0.586,0.328,0.176
3/31/2023 11:46:23.710,0.551,0.328,0.148
3/31/2023 11:46:23.720,0.527,0.344,0.113
3/31/2023 11:46:23.730,0.5,0.359,0.086
3/31/2023 11:46:23.740,0.48,0.367,0.074
3/31/2023 11:46:23.750,0.473,0.348,0.066
3/31/2023 11:46:23.760,0.484,0.344,0.066
3/31/2023 11:46:23.770,0.496,0.34,0.063
3/31/2023 11:46:23.780,0.516,0.34,0.051
3/31/2023 11:46:23.790,0.531,0.34,0.039
3/31/2023 11:46:23.800,0.555,0.34,0.039
3/31/2023 11:46:23.810,0.586,0.352,0.047
3/31/2023 11:46:23.820,0.617,0.363,0.043
3/31/2023 11:46:23.830,0.645,0.367,0.039
3/31/2023 11:46:23.840,0.676,0.371,0.035
3/31/2023 11:46:23.850,0.723,0.359,0.031
3/31/2023 11:46:23.860,0.789,0.359,0.016
3/31/2023 11:46:23.870,0.898,0.367,0
3/31/2023 11:46:23.880,1.027,0.375,-0.004
3/31/2023 11:46:23.890,1.148,0.379,-0.012
3/31/2023 11:46:23.900,1.25,0.375,-0.02
3/31/2023 11:46:23.910,1.316,0.379,-0.012
3/31/2023 11:46:23.920,1.352,0.379,-0.008
3/31/2023 11:46:23.930,1.348,0.379,-0.012
3/31/2023 11:46:23.940,1.313,0.355,-0.008
3/31/2023 11:46:23.950,1.297,0.324,-0.02
3/31/2023 11:46:23.960,1.34,0.301,-0.047
3/31/2023 11:46:23.970,1.438,0.305,-0.074
3/31/2023 11:46:23.980,1.516,0.324,-0.098
3/31/2023 11:46:23.990,1.527,0.344,-0.102
3/31/2023 11:46:24.000,1.414,0.359,-0.082
3/31/2023 11:46:24.010,1.238,0.383,-0.039
3/31/2023 11:46:24.020,1.063,0.434,0.012
3/31/2023 11:46:24.030,0.953,0.52,0.07
3/31/2023 11:46:24.040,0.918,0.613,0.117
3/31/2023 11:46:24.050,0.965,0.668,0.152
3/31/2023 11:46:24.060,1.066,0.664,0.184
3/31/2023 11:46:24.070,1.145,0.598,0.199
3/31/2023 11:46:24.080,1.16,0.516,0.188
3/31/2023 11:46:24.090,1.105,0.449,0.145
3/31/2023 11:46:24.100,1.02,0.41,0.098
3/31/2023 11:46:24.110,0.922,0.387,0.059
3/31/2023 11:46:24.120,0.84,0.375,0.047
3/31/2023 11:46:24.130,0.762,0.344,0.074
3/31/2023 11:46:24.140,0.699,0.309,0.125
3/31/2023 11:46:24.150,0.637,0.285,0.18
3/31/2023 11:46:24.160,0.582,0.277,0.23
3/31/2023 11:46:24.170,0.523,0.293,0.254
3/31/2023 11:46:24.180,0.473,0.316,0.254
3/31/2023 11:46:24.190,0.445,0.348,0.238
3/31/2023 11:46:24.200,0.434,0.363,0.215
3/31/2023 11:46:24.210,0.426,0.371,0.203
3/31/2023 11:46:24.220,0.41,0.367,0.199
3/31/2023 11:46:24.230,0.395,0.367,0.207
3/31/2023 11:46:24.240,0.395,0.383,0.211
3/31/2023 11:46:24.250,0.398,0.414,0.219
3/31/2023 11:46:24.260,0.418,0.453,0.234
3/31/2023 11:46:24.270,0.461,0.48,0.254
3/31/2023 11:46:24.280,0.535,0.492,0.27
3/31/2023 11:46:24.290,0.625,0.492,0.281
3/31/2023 11:46:24.300,0.727,0.488,0.277
3/31/2023 11:46:24.310,0.828,0.48,0.258
3/31/2023 11:46:24.320,0.922,0.465,0.23
3/31/2023 11:46:24.330,0.996,0.461,0.188
3/31/2023 11:46:24.340,1.066,0.469,0.148
3/31/2023 11:46:24.350,1.129,0.492,0.117
3/31/2023 11:46:24.360,1.191,0.531,0.09
3/31/2023 11:46:24.370,1.246,0.563,0.098
3/31/2023 11:46:24.380,1.281,0.586,0.129
3/31/2023 11:46:24.390,1.277,0.586,0.152
3/31/2023 11:46:24.400,1.238,0.574,0.148
3/31/2023 11:46:24.410,1.234,0.57,0.137
3/31/2023 11:46:24.420,1.305,0.617,0.133
3/31/2023 11:46:24.430,1.426,0.715,0.145
3/31/2023 11:46:24.440,1.527,0.848,0.18
3/31/2023 11:46:24.450,1.543,0.953,0.215
3/31/2023 11:46:24.460,1.461,1,0.223
3/31/2023 11:46:24.470,1.344,0.996,0.195
3/31/2023 11:46:24.480,1.258,0.945,0.148
3/31/2023 11:46:24.490,1.23,0.867,0.086
3/31/2023 11:46:24.500,1.219,0.754,0.02
3/31/2023 11:46:24.510,1.234,0.641,-0.031
3/31/2023 11:46:24.520,1.266,0.547,-0.059
3/31/2023 11:46:24.530,1.285,0.477,-0.055
3/31/2023 11:46:24.540,1.273,0.438,-0.02
3/31/2023 11:46:24.550,1.207,0.418,0.027
3/31/2023 11:46:24.560,1.109,0.406,0.082
3/31/2023 11:46:24.570,1.004,0.387,0.129
3/31/2023 11:46:24.580,0.918,0.359,0.172
3/31/2023 11:46:24.590,0.836,0.336,0.207
3/31/2023 11:46:24.600,0.754,0.32,0.219
3/31/2023 11:46:24.610,0.684,0.32,0.207
3/31/2023 11:46:24.620,0.617,0.34,0.18
3/31/2023 11:46:24.630,0.566,0.359,0.156
3/31/2023 11:46:24.640,0.516,0.363,0.137
3/31/2023 11:46:24.650,0.492,0.352,0.113
3/31/2023 11:46:24.660,0.48,0.348,0.094
3/31/2023 11:46:24.670,0.488,0.348,0.078
3/31/2023 11:46:24.680,0.484,0.359,0.07
3/31/2023 11:46:24.690,0.473,0.352,0.074
3/31/2023 11:46:24.700,0.465,0.34,0.074
3/31/2023 11:46:24.710,0.473,0.332,0.074
3/31/2023 11:46:24.720,0.496,0.348,0.07
3/31/2023 11:46:24.730,0.52,0.352,0.063
3/31/2023 11:46:24.740,0.539,0.34,0.059
3/31/2023 11:46:24.750,0.563,0.324,0.059
3/31/2023 11:46:24.760,0.59,0.305,0.063
3/31/2023 11:46:24.770,0.641,0.305,0.066
3/31/2023 11:46:24.780,0.719,0.313,0.063
3/31/2023 11:46:24.790,0.82,0.328,0.047
3/31/2023 11:46:24.800,0.922,0.344,0.039
3/31/2023 11:46:24.810,1.004,0.34,0.027
3/31/2023 11:46:24.820,1.07,0.344,0.02
3/31/2023 11:46:24.830,1.125,0.355,0.012
3/31/2023 11:46:24.840,1.18,0.379,-0.008
3/31/2023 11:46:24.850,1.223,0.391,-0.02
3/31/2023 11:46:24.860,1.234,0.387,-0.016
3/31/2023 11:46:24.870,1.199,0.363,0.012
3/31/2023 11:46:24.880,1.137,0.34,0.047
3/31/2023 11:46:24.890,1.102,0.324,0.07
3/31/2023 11:46:24.900,1.156,0.32,0.055
3/31/2023 11:46:24.910,1.305,0.34,0.012
3/31/2023 11:46:24.920,1.508,0.395,-0.035
3/31/2023 11:46:24.930,1.668,0.441,-0.039
3/31/2023 11:46:24.940,1.672,0.477,-0.016
3/31/2023 11:46:24.950,1.496,0.496,0.023
3/31/2023 11:46:24.960,1.258,0.516,0.059
3/31/2023 11:46:24.970,1.047,0.551,0.094
3/31/2023 11:46:24.980,0.945,0.598,0.117
3/31/2023 11:46:24.990,0.984,0.609,0.152
3/31/2023 11:46:25.000,1.117,0.578,0.191
3/31/2023 11:46:25.010,1.254,0.512,0.238
3/31/2023 11:46:25.020,1.285,0.445,0.246
3/31/2023 11:46:25.030,1.191,0.402,0.23
3/31/2023 11:46:25.040,1.039,0.367,0.188
3/31/2023 11:46:25.050,0.895,0.336,0.16
3/31/2023 11:46:25.060,0.777,0.305,0.148
3/31/2023 11:46:25.070,0.695,0.262,0.156
3/31/2023 11:46:25.080,0.621,0.219,0.184
3/31/2023 11:46:25.090,0.57,0.188,0.211
3/31/2023 11:46:25.100,0.523,0.188,0.203
3/31/2023 11:46:25.110,0.48,0.25,0.199
3/31/2023 11:46:25.120,0.438,0.309,0.211
3/31/2023 11:46:25.130,0.398,0.305,0.23
3/31/2023 11:46:25.140,0.387,0.297,0.242
3/31/2023 11:46:25.150,0.391,0.293,0.223
3/31/2023 11:46:25.160,0.395,0.309,0.188
3/31/2023 11:46:25.170,0.406,0.348,0.152
3/31/2023 11:46:25.180,0.418,0.387,0.125
3/31/2023 11:46:25.190,0.422,0.41,0.133
3/31/2023 11:46:25.200,0.43,0.422,0.148
3/31/2023 11:46:25.210,0.453,0.422,0.18
3/31/2023 11:46:25.220,0.508,0.434,0.211
3/31/2023 11:46:25.230,0.582,0.441,0.23
3/31/2023 11:46:25.240,0.672,0.457,0.23
3/31/2023 11:46:25.250,0.762,0.469,0.227
3/31/2023 11:46:25.260,0.859,0.477,0.215
3/31/2023 11:46:25.270,0.953,0.477,0.195
3/31/2023 11:46:25.280,1.035,0.473,0.172
3/31/2023 11:46:25.290,1.098,0.48,0.152
3/31/2023 11:46:25.300,1.137,0.504,0.125
3/31/2023 11:46:25.310,1.164,0.543,0.117
3/31/2023 11:46:25.320,1.191,0.582,0.129
3/31/2023 11:46:25.330,1.223,0.625,0.152
3/31/2023 11:46:25.340,1.246,0.645,0.164
3/31/2023 11:46:25.350,1.301,0.664,0.152
3/31/2023 11:46:25.360,1.398,0.699,0.148
3/31/2023 11:46:25.370,1.52,0.766,0.16
3/31/2023 11:46:25.380,1.594,0.836,0.188
3/31/2023 11:46:25.390,1.566,0.898,0.211
3/31/2023 11:46:25.400,1.426,0.918,0.211
3/31/2023 11:46:25.410,1.266,0.898,0.203
3/31/2023 11:46:25.420,1.152,0.852,0.191
3/31/2023 11:46:25.430,1.117,0.785,0.164
3/31/2023 11:46:25.440,1.141,0.699,0.133
3/31/2023 11:46:25.450,1.184,0.598,0.105
3/31/2023 11:46:25.460,1.227,0.492,0.09
3/31/2023 11:46:25.470,1.246,0.418,0.098
3/31/2023 11:46:25.480,1.223,0.367,0.109
3/31/2023 11:46:25.490,1.164,0.355,0.133
3/31/2023 11:46:25.500,1.074,0.375,0.156
3/31/2023 11:46:25.510,0.988,0.395,0.176
3/31/2023 11:46:25.520,0.902,0.398,0.191
3/31/2023 11:46:25.530,0.82,0.398,0.203
3/31/2023 11:46:25.540,0.738,0.391,0.207
3/31/2023 11:46:25.550,0.656,0.387,0.199
3/31/2023 11:46:25.560,0.582,0.387,0.18
3/31/2023 11:46:25.570,0.512,0.383,0.16
3/31/2023 11:46:25.580,0.469,0.387,0.141
3/31/2023 11:46:25.590,0.445,0.395,0.117
3/31/2023 11:46:25.600,0.438,0.398,0.109
3/31/2023 11:46:25.610,0.438,0.398,0.109
3/31/2023 11:46:25.620,0.441,0.391,0.117
3/31/2023 11:46:25.630,0.457,0.367,0.125
3/31/2023 11:46:25.640,0.48,0.344,0.133
3/31/2023 11:46:25.650,0.488,0.324,0.141
3/31/2023 11:46:25.660,0.504,0.313,0.141
3/31/2023 11:46:25.670,0.5,0.305,0.137
3/31/2023 11:46:25.680,0.5,0.309,0.137
3/31/2023 11:46:25.690,0.504,0.309,0.129
3/31/2023 11:46:25.700,0.516,0.313,0.129
3/31/2023 11:46:25.710,0.551,0.328,0.129
3/31/2023 11:46:25.720,0.617,0.359,0.117
3/31/2023 11:46:25.730,0.707,0.387,0.094
3/31/2023 11:46:25.740,0.813,0.418,0.09
3/31/2023 11:46:25.750,0.91,0.449,0.086
3/31/2023 11:46:25.760,1.004,0.473,0.082
3/31/2023 11:46:25.770,1.102,0.48,0.078
3/31/2023 11:46:25.780,1.223,0.484,0.078
3/31/2023 11:46:25.790,1.324,0.477,0.09
3/31/2023 11:46:25.800,1.371,0.449,0.102
3/31/2023 11:46:25.810,1.32,0.418,0.113
3/31/2023 11:46:25.820,1.211,0.391,0.133
3/31/2023 11:46:25.830,1.141,0.379,0.141
3/31/2023 11:46:25.840,1.176,0.41,0.133
3/31/2023 11:46:25.850,1.324,0.449,0.102
3/31/2023 11:46:25.860,1.492,0.477,0.059
3/31/2023 11:46:25.870,1.598,0.469,0.016
3/31/2023 11:46:25.880,1.586,0.441,0.004
3/31/2023 11:46:25.890,1.414,0.43,0
3/31/2023 11:46:25.900,1.172,0.449,0.016
3/31/2023 11:46:25.910,0.926,0.484,0.059
3/31/2023 11:46:25.920,0.73,0.531,0.105
3/31/2023 11:46:25.930,0.656,0.566,0.141
3/31/2023 11:46:25.940,0.727,0.551,0.176
3/31/2023 11:46:25.950,0.895,0.508,0.207
3/31/2023 11:46:25.960,1.059,0.465,0.23
3/31/2023 11:46:25.970,1.141,0.418,0.23
3/31/2023 11:46:25.980,1.102,0.379,0.195
3/31/2023 11:46:25.990,0.965,0.352,0.148
3/31/2023 11:46:26.000,0.797,0.316,0.109
3/31/2023 11:46:26.010,0.676,0.258,0.09
3/31/2023 11:46:26.020,0.594,0.203,0.094
3/31/2023 11:46:26.030,0.547,0.152,0.121
3/31/2023 11:46:26.040,0.523,0.137,0.152
3/31/2023 11:46:26.050,0.504,0.156,0.168
3/31/2023 11:46:26.060,0.488,0.219,0.176
3/31/2023 11:46:26.070,0.457,0.281,0.176
3/31/2023 11:46:26.080,0.438,0.316,0.172
3/31/2023 11:46:26.090,0.43,0.336,0.156
3/31/2023 11:46:26.100,0.445,0.352,0.156
3/31/2023 11:46:26.110,0.469,0.379,0.156
3/31/2023 11:46:26.120,0.484,0.414,0.16
3/31/2023 11:46:26.130,0.5,0.441,0.176
3/31/2023 11:46:26.140,0.516,0.473,0.191
3/31/2023 11:46:26.150,0.551,0.5,0.211
3/31/2023 11:46:26.160,0.598,0.52,0.246
3/31/2023 11:46:26.170,0.672,0.535,0.262
3/31/2023 11:46:26.180,0.758,0.547,0.273
3/31/2023 11:46:26.190,0.859,0.523,0.277
3/31/2023 11:46:26.200,0.961,0.48,0.277
3/31/2023 11:46:26.210,1.047,0.43,0.258
3/31/2023 11:46:26.220,1.102,0.379,0.246
3/31/2023 11:46:26.230,1.137,0.352,0.242
3/31/2023 11:46:26.240,1.168,0.359,0.246
3/31/2023 11:46:26.250,1.223,0.402,0.258
3/31/2023 11:46:26.260,1.285,0.465,0.266
3/31/2023 11:46:26.270,1.34,0.531,0.266
3/31/2023 11:46:26.280,1.355,0.559,0.258
3/31/2023 11:46:26.290,1.359,0.559,0.246
3/31/2023 11:46:26.300,1.391,0.566,0.238
3/31/2023 11:46:26.310,1.469,0.633,0.25
3/31/2023 11:46:26.320,1.547,0.723,0.289
3/31/2023 11:46:26.330,1.551,0.82,0.324
3/31/2023 11:46:26.340,1.457,0.883,0.344
3/31/2023 11:46:26.350,1.313,0.887,0.332
3/31/2023 11:46:26.360,1.188,0.855,0.285
3/31/2023 11:46:26.370,1.129,0.797,0.215
3/31/2023 11:46:26.380,1.129,0.711,0.141
3/31/2023 11:46:26.390,1.152,0.613,0.074
3/31/2023 11:46:26.400,1.188,0.508,0.027
3/31/2023 11:46:26.410,1.223,0.422,0.02
3/31/2023 11:46:26.420,1.223,0.359,0.039
3/31/2023 11:46:26.430,1.172,0.332,0.09
3/31/2023 11:46:26.440,1.082,0.309,0.133
3/31/2023 11:46:26.450,0.977,0.285,0.176
3/31/2023 11:46:26.460,0.863,0.27,0.199
3/31/2023 11:46:26.470,0.766,0.258,0.207
3/31/2023 11:46:26.480,0.676,0.258,0.203
3/31/2023 11:46:26.490,0.598,0.273,0.18
3/31/2023 11:46:26.500,0.52,0.297,0.164
3/31/2023 11:46:26.510,0.477,0.328,0.148
3/31/2023 11:46:26.520,0.449,0.363,0.129
3/31/2023 11:46:26.530,0.445,0.395,0.109
3/31/2023 11:46:26.540,0.438,0.406,0.09
3/31/2023 11:46:26.550,0.43,0.418,0.078
3/31/2023 11:46:26.560,0.438,0.414,0.074
3/31/2023 11:46:26.570,0.453,0.402,0.074
3/31/2023 11:46:26.580,0.469,0.391,0.07
3/31/2023 11:46:26.590,0.473,0.379,0.074
3/31/2023 11:46:26.600,0.465,0.344,0.082
3/31/2023 11:46:26.610,0.469,0.309,0.09
3/31/2023 11:46:26.620,0.48,0.293,0.09
3/31/2023 11:46:26.630,0.512,0.285,0.098
3/31/2023 11:46:26.640,0.57,0.293,0.105
3/31/2023 11:46:26.650,0.637,0.301,0.102
3/31/2023 11:46:26.660,0.703,0.293,0.098
3/31/2023 11:46:26.670,0.754,0.277,0.086
3/31/2023 11:46:26.680,0.809,0.273,0.07
3/31/2023 11:46:26.690,0.906,0.281,0.047
3/31/2023 11:46:26.700,1.047,0.309,0.02
3/31/2023 11:46:26.710,1.203,0.348,0
3/31/2023 11:46:26.720,1.336,0.375,-0.016
3/31/2023 11:46:26.730,1.402,0.391,-0.016
3/31/2023 11:46:26.740,1.379,0.387,-0.004
3/31/2023 11:46:26.750,1.289,0.379,0.016
3/31/2023 11:46:26.760,1.203,0.383,0.027
3/31/2023 11:46:26.770,1.199,0.398,0.027
3/31/2023 11:46:26.780,1.313,0.422,0.012
3/31/2023 11:46:26.790,1.48,0.441,-0.016
3/31/2023 11:46:26.800,1.621,0.438,-0.051
3/31/2023 11:46:26.810,1.676,0.406,-0.063
3/31/2023 11:46:26.820,1.605,0.371,-0.035
3/31/2023 11:46:26.830,1.414,0.379,0
3/31/2023 11:46:26.840,1.191,0.414,0.039
3/31/2023 11:46:26.850,1.004,0.484,0.09
3/31/2023 11:46:26.860,0.891,0.551,0.129
3/31/2023 11:46:26.870,0.875,0.566,0.156
3/31/2023 11:46:26.880,0.957,0.523,0.184
3/31/2023 11:46:26.890,1.074,0.453,0.203
3/31/2023 11:46:26.900,1.125,0.379,0.207
3/31/2023 11:46:26.910,1.078,0.316,0.188
3/31/2023 11:46:26.920,0.961,0.266,0.168
3/31/2023 11:46:26.930,0.836,0.23,0.156
3/31/2023 11:46:26.940,0.727,0.188,0.16
3/31/2023 11:46:26.950,0.648,0.148,0.184
3/31/2023 11:46:26.960,0.602,0.121,0.203
3/31/2023 11:46:26.970,0.574,0.117,0.219
3/31/2023 11:46:26.980,0.551,0.145,0.23
3/31/2023 11:46:26.990,0.516,0.184,0.215
3/31/2023 11:46:27.000,0.461,0.23,0.195
3/31/2023 11:46:27.010,0.426,0.246,0.195
3/31/2023 11:46:27.020,0.395,0.238,0.191
3/31/2023 11:46:27.030,0.387,0.242,0.191
3/31/2023 11:46:27.040,0.398,0.262,0.184
3/31/2023 11:46:27.050,0.434,0.293,0.18
3/31/2023 11:46:27.060,0.484,0.344,0.176
3/31/2023 11:46:27.070,0.539,0.391,0.176
3/31/2023 11:46:27.080,0.598,0.426,0.188
3/31/2023 11:46:27.090,0.668,0.449,0.203
3/31/2023 11:46:27.100,0.75,0.457,0.207
3/31/2023 11:46:27.110,0.828,0.449,0.211
3/31/2023 11:46:27.120,0.891,0.422,0.203
3/31/2023 11:46:27.130,0.953,0.395,0.191
3/31/2023 11:46:27.140,1.008,0.359,0.168
3/31/2023 11:46:27.150,1.059,0.336,0.152
3/31/2023 11:46:27.160,1.102,0.316,0.137
3/31/2023 11:46:27.170,1.152,0.336,0.125
3/31/2023 11:46:27.180,1.211,0.395,0.121
3/31/2023 11:46:27.190,1.266,0.469,0.141
3/31/2023 11:46:27.200,1.277,0.547,0.176
3/31/2023 11:46:27.210,1.25,0.617,0.195
3/31/2023 11:46:27.220,1.242,0.676,0.199
3/31/2023 11:46:27.230,1.316,0.75,0.191
3/31/2023 11:46:27.240,1.449,0.84,0.207
3/31/2023 11:46:27.250,1.566,0.918,0.234
3/31/2023 11:46:27.260,1.574,0.938,0.273
3/31/2023 11:46:27.270,1.488,0.91,0.281
3/31/2023 11:46:27.280,1.379,0.848,0.25
3/31/2023 11:46:27.290,1.285,0.766,0.195
3/31/2023 11:46:27.300,1.23,0.672,0.133
3/31/2023 11:46:27.310,1.211,0.574,0.078
3/31/2023 11:46:27.320,1.215,0.477,0.051
3/31/2023 11:46:27.330,1.234,0.402,0.051
3/31/2023 11:46:27.340,1.238,0.355,0.07
3/31/2023 11:46:27.350,1.211,0.336,0.105
3/31/2023 11:46:27.360,1.152,0.336,0.141
3/31/2023 11:46:27.370,1.074,0.336,0.168
3/31/2023 11:46:27.380,1,0.344,0.191
3/31/2023 11:46:27.390,0.938,0.355,0.188
3/31/2023 11:46:27.400,0.875,0.367,0.172
3/31/2023 11:46:27.410,0.805,0.371,0.156
3/31/2023 11:46:27.420,0.73,0.375,0.145
3/31/2023 11:46:27.430,0.656,0.379,0.125
3/31/2023 11:46:27.440,0.594,0.387,0.117
3/31/2023 11:46:27.450,0.535,0.395,0.109
3/31/2023 11:46:27.460,0.496,0.398,0.094
3/31/2023 11:46:27.470,0.469,0.391,0.094
3/31/2023 11:46:27.480,0.469,0.375,0.094
3/31/2023 11:46:27.490,0.48,0.352,0.09
3/31/2023 11:46:27.500,0.484,0.348,0.086
3/31/2023 11:46:27.510,0.492,0.336,0.078
3/31/2023 11:46:27.520,0.492,0.324,0.066
3/31/2023 11:46:27.530,0.492,0.313,0.059
3/31/2023 11:46:27.540,0.496,0.301,0.051
3/31/2023 11:46:27.550,0.523,0.293,0.043
3/31/2023 11:46:27.560,0.566,0.293,0.051
3/31/2023 11:46:27.570,0.613,0.289,0.059
3/31/2023 11:46:27.580,0.652,0.285,0.066
3/31/2023 11:46:27.590,0.691,0.285,0.074
3/31/2023 11:46:27.600,0.746,0.289,0.074
3/31/2023 11:46:27.610,0.832,0.297,0.055
3/31/2023 11:46:27.620,0.941,0.301,0.031
3/31/2023 11:46:27.630,1.07,0.309,0.016
3/31/2023 11:46:27.640,1.195,0.32,-0.004
3/31/2023 11:46:27.650,1.297,0.352,-0.012
3/31/2023 11:46:27.660,1.359,0.371,-0.016
3/31/2023 11:46:27.670,1.344,0.383,-0.012
3/31/2023 11:46:27.680,1.25,0.383,-0.008
3/31/2023 11:46:27.690,1.188,0.391,0
3/31/2023 11:46:27.700,1.227,0.402,-0.004
3/31/2023 11:46:27.710,1.352,0.41,-0.027
3/31/2023 11:46:27.720,1.484,0.395,-0.07
3/31/2023 11:46:27.730,1.574,0.359,-0.09
3/31/2023 11:46:27.740,1.559,0.352,-0.082
3/31/2023 11:46:27.750,1.434,0.367,-0.059
3/31/2023 11:46:27.760,1.262,0.41,-0.02
3/31/2023 11:46:27.770,1.102,0.469,0.035
3/31/2023 11:46:27.780,0.98,0.547,0.09
3/31/2023 11:46:27.790,0.93,0.613,0.129
3/31/2023 11:46:27.800,0.953,0.652,0.168
3/31/2023 11:46:27.810,1.02,0.637,0.191
3/31/2023 11:46:27.820,1.074,0.566,0.223
3/31/2023 11:46:27.830,1.059,0.48,0.223
3/31/2023 11:46:27.840,0.988,0.395,0.199
3/31/2023 11:46:27.850,0.879,0.332,0.172
3/31/2023 11:46:27.860,0.766,0.289,0.148
3/31/2023 11:46:27.870,0.672,0.25,0.152
3/31/2023 11:46:27.880,0.613,0.215,0.168
3/31/2023 11:46:27.890,0.574,0.184,0.203
3/31/2023 11:46:27.900,0.547,0.168,0.23
3/31/2023 11:46:27.910,0.52,0.176,0.254
3/31/2023 11:46:27.920,0.488,0.188,0.316
3/31/2023 11:46:27.930,0.453,0.168,0.34
3/31/2023 11:46:27.940,0.453,0.199,0.313
3/31/2023 11:46:27.950,0.449,0.254,0.258
3/31/2023 11:46:27.960,0.438,0.297,0.211
3/31/2023 11:46:27.970,0.414,0.332,0.176
3/31/2023 11:46:27.980,0.406,0.375,0.164
3/31/2023 11:46:27.990,0.418,0.414,0.176
3/31/2023 11:46:28.000,0.445,0.445,0.195
3/31/2023 11:46:28.010,0.504,0.461,0.234
3/31/2023 11:46:28.020,0.574,0.473,0.273
3/31/2023 11:46:28.030,0.664,0.477,0.297
3/31/2023 11:46:28.040,0.754,0.473,0.316
3/31/2023 11:46:28.050,0.832,0.453,0.313
3/31/2023 11:46:28.060,0.895,0.422,0.289
3/31/2023 11:46:28.070,0.949,0.387,0.25
3/31/2023 11:46:28.080,1.008,0.359,0.203
3/31/2023 11:46:28.090,1.074,0.363,0.16
3/31/2023 11:46:28.100,1.141,0.387,0.117
3/31/2023 11:46:28.110,1.199,0.438,0.102
3/31/2023 11:46:28.120,1.258,0.516,0.105
3/31/2023 11:46:28.130,1.285,0.59,0.129
3/31/2023 11:46:28.140,1.297,0.652,0.148
3/31/2023 11:46:28.150,1.344,0.715,0.152
3/31/2023 11:46:28.160,1.465,0.789,0.164
3/31/2023 11:46:28.170,1.621,0.887,0.188
3/31/2023 11:46:28.180,1.727,0.973,0.215
3/31/2023 11:46:28.190,1.691,1.016,0.254
3/31/2023 11:46:28.200,1.535,0.992,0.289
3/31/2023 11:46:28.210,1.344,0.93,0.277
3/31/2023 11:46:28.220,1.191,0.855,0.258
3/31/2023 11:46:28.230,1.117,0.781,0.227
3/31/2023 11:46:28.240,1.098,0.703,0.176
3/31/2023 11:46:28.250,1.148,0.617,0.133
3/31/2023 11:46:28.260,1.238,0.539,0.109
3/31/2023 11:46:28.270,1.313,0.473,0.109
3/31/2023 11:46:28.280,1.316,0.43,0.133
3/31/2023 11:46:28.290,1.258,0.402,0.168
3/31/2023 11:46:28.300,1.152,0.398,0.199
3/31/2023 11:46:28.310,1.039,0.387,0.223
3/31/2023 11:46:28.320,0.938,0.367,0.238
3/31/2023 11:46:28.330,0.844,0.332,0.246
3/31/2023 11:46:28.340,0.754,0.316,0.242
3/31/2023 11:46:28.350,0.668,0.313,0.227
3/31/2023 11:46:28.360,0.582,0.316,0.199
3/31/2023 11:46:28.370,0.508,0.328,0.172
3/31/2023 11:46:28.380,0.449,0.328,0.145
3/31/2023 11:46:28.390,0.41,0.328,0.121
3/31/2023 11:46:28.400,0.402,0.328,0.102
3/31/2023 11:46:28.410,0.41,0.336,0.102
3/31/2023 11:46:28.420,0.438,0.332,0.105
3/31/2023 11:46:28.430,0.469,0.328,0.105
3/31/2023 11:46:28.440,0.492,0.332,0.102
3/31/2023 11:46:28.450,0.52,0.336,0.102
3/31/2023 11:46:28.460,0.543,0.34,0.105
3/31/2023 11:46:28.470,0.582,0.352,0.102
3/31/2023 11:46:28.480,0.629,0.367,0.094
3/31/2023 11:46:28.490,0.664,0.367,0.086
3/31/2023 11:46:28.500,0.688,0.363,0.074
3/31/2023 11:46:28.510,0.738,0.344,0.066
3/31/2023 11:46:28.520,0.813,0.344,0.047
3/31/2023 11:46:28.530,0.902,0.352,0.035
3/31/2023 11:46:28.540,1.008,0.367,0.031
3/31/2023 11:46:28.550,1.098,0.371,0.023
3/31/2023 11:46:28.560,1.191,0.375,0.027
3/31/2023 11:46:28.570,1.266,0.383,0.043
3/31/2023 11:46:28.580,1.285,0.387,0.051
3/31/2023 11:46:28.590,1.238,0.375,0.055
3/31/2023 11:46:28.600,1.176,0.352,0.059
3/31/2023 11:46:28.610,1.16,0.328,0.039
3/31/2023 11:46:28.620,1.234,0.316,-0.012
3/31/2023 11:46:28.630,1.379,0.34,-0.082
3/31/2023 11:46:28.640,1.535,0.363,-0.117
3/31/2023 11:46:28.650,1.629,0.391,-0.109
