------------ Data File Created By ActiGraph GT3X+ ActiLife v6.13.4 Firmware v1.7.2 date format M/d/yyyy at 100 Hz  Filter Normal -----------
Serial Number: TAS1H50200818
Start Time 09:17:00
Start Date 3/22/2023
Epoch Period (hh:mm:ss) 00:00:00
Download Time 09:31:58
Download Date 3/22/2023
Current Memory Address: 0
Current Battery Voltage: 4.2     Mode = 12
--------------------------------------------------
Timestamp,Accelerometer X,Accelerometer Y,Accelerometer Z
3/22/2023 09:17:00.000,-0.945,0.305,0.184
3/22/2023 09:17:00.010,-0.934,0.297,0.18
3/22/2023 09:17:00.020,-0.934,0.293,0.176
3/22/2023 09:17:00.030,-0.941,0.285,0.172
3/22/2023 09:17:00.040,-0.941,0.285,0.176
3/22/2023 09:17:00.050,-0.941,0.289,0.176
3/22/2023 09:17:00.060,-0.941,0.285,0.18
3/22/2023 09:17:00.070,-0.949,0.289,0.176
3/22/2023 09:17:00.080,-0.961,0.297,0.172
3/22/2023 09:17:00.090,-0.961,0.301,0.164
3/22/2023 09:17:00.100,-0.961,0.301,0.16
3/22/2023 09:17:00.110,-0.969,0.297,0.152
3/22/2023 09:17:00.120,-0.973,0.289,0.152
3/22/2023 09:17:00.130,-0.965,0.293,0.148
3/22/2023 09:17:00.140,-0.961,0.285,0.145
3/22/2023 09:17:00.150,-0.961,0.281,0.141
3/22/2023 09:17:00.160,-0.961,0.273,0.145
3/22/2023 09:17:00.170,-0.957,0.273,0.148
3/22/2023 09:17:00.180,-0.949,0.273,0.145
3/22/2023 09:17:00.190,-0.938,0.273,0.145
3/22/2023 09:17:00.200,-0.941,0.266,0.145
3/22/2023 09:17:00.210,-0.941,0.266,0.145
3/22/2023 09:17:00.220,-0.941,0.262,0.141
3/22/2023 09:17:00.230,-0.938,0.266,0.137
3/22/2023 09:17:00.240,-0.938,0.262,0.133
3/22/2023 09:17:00.250,-0.938,0.262,0.137
3/22/2023 09:17:00.260,-0.941,0.258,0.133
3/22/2023 09:17:00.270,-0.941,0.258,0.129
3/22/2023 09:17:00.280,-0.938,0.258,0.133
3/22/2023 09:17:00.290,-0.938,0.25,0.137
3/22/2023 09:17:00.300,-0.941,0.25,0.129
3/22/2023 09:17:00.310,-0.938,0.246,0.125
3/22/2023 09:17:00.320,-0.938,0.258,0.113
3/22/2023 09:17:00.330,-0.938,0.262,0.121
3/22/2023 09:17:00.340,-0.938,0.258,0.125
3/22/2023 09:17:00.350,-0.934,0.258,0.137
3/22/2023 09:17:00.360,-0.93,0.25,0.145
3/22/2023 09:17:00.370,-0.93,0.25,0.148
3/22/2023 09:17:00.380,-0.938,0.254,0.145
3/22/2023 09:17:00.390,-0.941,0.258,0.145
3/22/2023 09:17:00.400,-0.941,0.266,0.137
3/22/2023 09:17:00.410,-0.941,0.277,0.137
3/22/2023 09:17:00.420,-0.941,0.281,0.121
3/22/2023 09:17:00.430,-0.953,0.277,0.113
3/22/2023 09:17:00.440,-0.953,0.273,0.105
3/22/2023 09:17:00.450,-0.945,0.27,0.105
3/22/2023 09:17:00.460,-0.941,0.27,0.113
3/22/2023 09:17:00.470,-0.941,0.27,0.117
3/22/2023 09:17:00.480,-0.941,0.27,0.113
3/22/2023 09:17:00.490,-0.941,0.27,0.109
3/22/2023 09:17:00.500,-0.949,0.27,0.109
3/22/2023 09:17:00.510,-0.934,0.27,0.121
3/22/2023 09:17:00.520,-0.934,0.27,0.129
3/22/2023 09:17:00.530,-0.93,0.27,0.137
3/22/2023 09:17:00.540,-0.934,0.273,0.141
3/22/2023 09:17:00.550,-0.938,0.273,0.148
3/22/2023 09:17:00.560,-0.93,0.277,0.156
3/22/2023 09:17:00.570,-0.938,0.277,0.152
3/22/2023 09:17:00.580,-0.945,0.273,0.145
3/22/2023 09:17:00.590,-0.945,0.27,0.148
3/22/2023 09:17:00.600,-0.945,0.262,0.152
3/22/2023 09:17:00.610,-0.949,0.262,0.145
3/22/2023 09:17:00.620,-0.953,0.266,0.148
3/22/2023 09:17:00.630,-0.949,0.273,0.145
3/22/2023 09:17:00.640,-0.949,0.277,0.145
3/22/2023 09:17:00.650,-0.941,0.277,0.152
3/22/2023 09:17:00.660,-0.941,0.273,0.152
3/22/2023 09:17:00.670,-0.941,0.27,0.152
3/22/2023 09:17:00.680,-0.941,0.27,0.148
3/22/2023 09:17:00.690,-0.938,0.277,0.152
3/22/2023 09:17:00.700,-0.949,0.277,0.16
3/22/2023 09:17:00.710,-0.949,0.27,0.168
3/22/2023 09:17:00.720,-0.938,0.27,0.172
3/22/2023 09:17:00.730,-0.938,0.27,0.168
3/22/2023 09:17:00.740,-0.941,0.27,0.164
3/22/2023 09:17:00.750,-0.941,0.273,0.164
3/22/2023 09:17:00.760,-0.949,0.27,0.168
3/22/2023 09:17:00.770,-0.945,0.266,0.172
3/22/2023 09:17:00.780,-0.945,0.266,0.172
3/22/2023 09:17:00.790,-0.941,0.266,0.172
3/22/2023 09:17:00.800,-0.941,0.266,0.176
3/22/2023 09:17:00.810,-0.941,0.266,0.176
3/22/2023 09:17:00.820,-0.941,0.273,0.164
3/22/2023 09:17:00.830,-0.938,0.273,0.16
3/22/2023 09:17:00.840,-0.934,0.277,0.168
3/22/2023 09:17:00.850,-0.93,0.273,0.172
3/22/2023 09:17:00.860,-0.926,0.277,0.172
3/22/2023 09:17:00.870,-0.926,0.277,0.168
3/22/2023 09:17:00.880,-0.922,0.273,0.172
3/22/2023 09:17:00.890,-0.926,0.273,0.172
3/22/2023 09:17:00.900,-0.93,0.281,0.172
3/22/2023 09:17:00.910,-0.93,0.281,0.168
3/22/2023 09:17:00.920,-0.938,0.277,0.168
3/22/2023 09:17:00.930,-0.941,0.273,0.16
3/22/2023 09:17:00.940,-0.945,0.273,0.164
3/22/2023 09:17:00.950,-0.941,0.27,0.164
3/22/2023 09:17:00.960,-0.941,0.285,0.168
3/22/2023 09:17:00.970,-0.941,0.297,0.168
3/22/2023 09:17:00.980,-0.938,0.297,0.172
3/22/2023 09:17:00.990,-0.938,0.301,0.168
3/22/2023 09:17:01.000,-0.945,0.305,0.172
3/22/2023 09:17:01.010,-0.934,0.301,0.168
3/22/2023 09:17:01.020,-0.934,0.293,0.156
3/22/2023 09:17:01.030,-0.938,0.27,0.148
3/22/2023 09:17:01.040,-0.941,0.246,0.141
3/22/2023 09:17:01.050,-0.941,0.238,0.121
3/22/2023 09:17:01.060,-0.941,0.258,0.102
3/22/2023 09:17:01.070,-0.945,0.27,0.094
3/22/2023 09:17:01.080,-0.957,0.277,0.078
3/22/2023 09:17:01.090,-0.984,0.289,0.078
3/22/2023 09:17:01.100,-1.004,0.301,0.07
3/22/2023 09:17:01.110,-1.016,0.305,0.086
3/22/2023 09:17:01.120,-0.996,0.301,0.148
3/22/2023 09:17:01.130,-0.93,0.305,0.238
3/22/2023 09:17:01.140,-0.871,0.297,0.285
3/22/2023 09:17:01.150,-0.863,0.281,0.27
3/22/2023 09:17:01.160,-0.879,0.254,0.258
3/22/2023 09:17:01.170,-0.895,0.227,0.246
3/22/2023 09:17:01.180,-0.898,0.223,0.23
3/22/2023 09:17:01.190,-0.902,0.242,0.211
3/22/2023 09:17:01.200,-0.906,0.258,0.203
3/22/2023 09:17:01.210,-0.906,0.281,0.191
3/22/2023 09:17:01.220,-0.922,0.297,0.18
3/22/2023 09:17:01.230,-0.93,0.313,0.168
3/22/2023 09:17:01.240,-0.938,0.32,0.152
3/22/2023 09:17:01.250,-0.938,0.316,0.145
3/22/2023 09:17:01.260,-0.938,0.305,0.141
3/22/2023 09:17:01.270,-0.941,0.297,0.137
3/22/2023 09:17:01.280,-0.941,0.285,0.141
3/22/2023 09:17:01.290,-0.945,0.273,0.141
3/22/2023 09:17:01.300,-0.945,0.266,0.148
3/22/2023 09:17:01.310,-0.945,0.27,0.16
3/22/2023 09:17:01.320,-0.941,0.262,0.168
3/22/2023 09:17:01.330,-0.945,0.262,0.176
3/22/2023 09:17:01.340,-0.945,0.266,0.184
3/22/2023 09:17:01.350,-0.945,0.27,0.191
3/22/2023 09:17:01.360,-0.941,0.277,0.191
3/22/2023 09:17:01.370,-0.941,0.273,0.191
3/22/2023 09:17:01.380,-0.949,0.277,0.188
3/22/2023 09:17:01.390,-0.953,0.281,0.188
3/22/2023 09:17:01.400,-0.949,0.285,0.18
3/22/2023 09:17:01.410,-0.945,0.285,0.172
3/22/2023 09:17:01.420,-0.941,0.289,0.168
3/22/2023 09:17:01.430,-0.941,0.297,0.164
3/22/2023 09:17:01.440,-0.941,0.293,0.164
3/22/2023 09:17:01.450,-0.941,0.289,0.16
3/22/2023 09:17:01.460,-0.934,0.289,0.156
3/22/2023 09:17:01.470,-0.93,0.285,0.16
3/22/2023 09:17:01.480,-0.93,0.281,0.164
3/22/2023 09:17:01.490,-0.934,0.277,0.168
3/22/2023 09:17:01.500,-0.941,0.277,0.16
3/22/2023 09:17:01.510,-0.938,0.273,0.164
3/22/2023 09:17:01.520,-0.941,0.273,0.164
3/22/2023 09:17:01.530,-0.941,0.27,0.168
3/22/2023 09:17:01.540,-0.941,0.27,0.164
3/22/2023 09:17:01.550,-0.941,0.27,0.164
3/22/2023 09:17:01.560,-0.941,0.27,0.156
3/22/2023 09:17:01.570,-0.941,0.266,0.156
3/22/2023 09:17:01.580,-0.945,0.27,0.16
3/22/2023 09:17:01.590,-0.945,0.27,0.156
3/22/2023 09:17:01.600,-0.941,0.27,0.156
3/22/2023 09:17:01.610,-0.941,0.266,0.156
3/22/2023 09:17:01.620,-0.934,0.27,0.156
3/22/2023 09:17:01.630,-0.934,0.277,0.156
3/22/2023 09:17:01.640,-0.938,0.273,0.16
3/22/2023 09:17:01.650,-0.941,0.273,0.16
3/22/2023 09:17:01.660,-0.941,0.27,0.164
3/22/2023 09:17:01.670,-0.941,0.273,0.156
3/22/2023 09:17:01.680,-0.941,0.27,0.156
3/22/2023 09:17:01.690,-0.941,0.27,0.156
3/22/2023 09:17:01.700,-0.941,0.27,0.152
3/22/2023 09:17:01.710,-0.945,0.273,0.152
3/22/2023 09:17:01.720,-0.941,0.273,0.152
3/22/2023 09:17:01.730,-0.941,0.273,0.148
3/22/2023 09:17:01.740,-0.941,0.273,0.152
3/22/2023 09:17:01.750,-0.941,0.27,0.156
3/22/2023 09:17:01.760,-0.938,0.27,0.156
3/22/2023 09:17:01.770,-0.938,0.27,0.152
3/22/2023 09:17:01.780,-0.941,0.27,0.152
3/22/2023 09:17:01.790,-0.945,0.27,0.156
3/22/2023 09:17:01.800,-0.941,0.27,0.16
3/22/2023 09:17:01.810,-0.941,0.27,0.156
3/22/2023 09:17:01.820,-0.941,0.27,0.156
3/22/2023 09:17:01.830,-0.941,0.273,0.156
3/22/2023 09:17:01.840,-0.941,0.277,0.156
3/22/2023 09:17:01.850,-0.941,0.273,0.152
3/22/2023 09:17:01.860,-0.941,0.277,0.152
3/22/2023 09:17:01.870,-0.945,0.273,0.152
3/22/2023 09:17:01.880,-0.945,0.277,0.156
3/22/2023 09:17:01.890,-0.945,0.281,0.156
3/22/2023 09:17:01.900,-0.945,0.281,0.16
3/22/2023 09:17:01.910,-0.941,0.281,0.168
3/22/2023 09:17:01.920,-0.945,0.277,0.164
3/22/2023 09:17:01.930,-0.945,0.277,0.156
3/22/2023 09:17:01.940,-0.941,0.277,0.164
3/22/2023 09:17:01.950,-0.941,0.273,0.164
3/22/2023 09:17:01.960,-0.941,0.273,0.16
3/22/2023 09:17:01.970,-0.938,0.277,0.164
3/22/2023 09:17:01.980,-0.941,0.277,0.168
3/22/2023 09:17:01.990,-0.941,0.277,0.172
3/22/2023 09:17:02.000,-0.953,0.289,0.172
3/22/2023 09:17:02.010,-0.949,0.285,0.172
3/22/2023 09:17:02.020,-0.945,0.281,0.172
3/22/2023 09:17:02.030,-0.945,0.281,0.172
3/22/2023 09:17:02.040,-0.941,0.281,0.172
3/22/2023 09:17:02.050,-0.945,0.277,0.168
3/22/2023 09:17:02.060,-0.945,0.273,0.168
3/22/2023 09:17:02.070,-0.941,0.273,0.168
3/22/2023 09:17:02.080,-0.945,0.27,0.168
3/22/2023 09:17:02.090,-0.938,0.27,0.168
3/22/2023 09:17:02.100,-0.938,0.27,0.168
3/22/2023 09:17:02.110,-0.941,0.27,0.164
3/22/2023 09:17:02.120,-0.941,0.273,0.16
3/22/2023 09:17:02.130,-0.941,0.273,0.168
3/22/2023 09:17:02.140,-0.941,0.277,0.16
3/22/2023 09:17:02.150,-0.941,0.273,0.16
3/22/2023 09:17:02.160,-0.938,0.273,0.168
3/22/2023 09:17:02.170,-0.941,0.273,0.16
3/22/2023 09:17:02.180,-0.941,0.273,0.156
3/22/2023 09:17:02.190,-0.938,0.277,0.156
3/22/2023 09:17:02.200,-0.938,0.277,0.156
3/22/2023 09:17:02.210,-0.938,0.281,0.156
3/22/2023 09:17:02.220,-0.938,0.277,0.156
3/22/2023 09:17:02.230,-0.941,0.273,0.156
3/22/2023 09:17:02.240,-0.941,0.273,0.152
3/22/2023 09:17:02.250,-0.941,0.27,0.152
3/22/2023 09:17:02.260,-0.941,0.27,0.152
3/22/2023 09:17:02.270,-0.941,0.27,0.156
3/22/2023 09:17:02.280,-0.938,0.27,0.148
3/22/2023 09:17:02.290,-0.941,0.266,0.152
3/22/2023 09:17:02.300,-0.945,0.27,0.148
3/22/2023 09:17:02.310,-0.945,0.27,0.152
3/22/2023 09:17:02.320,-0.945,0.277,0.148
3/22/2023 09:17:02.330,-0.941,0.277,0.148
3/22/2023 09:17:02.340,-0.941,0.277,0.148
3/22/2023 09:17:02.350,-0.945,0.273,0.148
3/22/2023 09:17:02.360,-0.945,0.273,0.148
3/22/2023 09:17:02.370,-0.941,0.27,0.148
3/22/2023 09:17:02.380,-0.941,0.27,0.148
3/22/2023 09:17:02.390,-0.938,0.27,0.148
3/22/2023 09:17:02.400,-0.938,0.27,0.148
3/22/2023 09:17:02.410,-0.934,0.27,0.152
3/22/2023 09:17:02.420,-0.934,0.27,0.148
3/22/2023 09:17:02.430,-0.938,0.27,0.152
3/22/2023 09:17:02.440,-0.934,0.27,0.152
3/22/2023 09:17:02.450,-0.938,0.27,0.152
3/22/2023 09:17:02.460,-0.941,0.27,0.148
3/22/2023 09:17:02.470,-0.941,0.27,0.152
3/22/2023 09:17:02.480,-0.945,0.262,0.156
3/22/2023 09:17:02.490,-0.945,0.262,0.16
3/22/2023 09:17:02.500,-0.953,0.266,0.152
3/22/2023 09:17:02.510,-0.945,0.266,0.164
3/22/2023 09:17:02.520,-0.949,0.266,0.152
3/22/2023 09:17:02.530,-0.945,0.27,0.152
3/22/2023 09:17:02.540,-0.945,0.27,0.156
3/22/2023 09:17:02.550,-0.949,0.273,0.164
3/22/2023 09:17:02.560,-0.949,0.27,0.168
3/22/2023 09:17:02.570,-0.949,0.27,0.164
3/22/2023 09:17:02.580,-0.949,0.27,0.16
3/22/2023 09:17:02.590,-0.949,0.27,0.156
3/22/2023 09:17:02.600,-0.949,0.27,0.152
3/22/2023 09:17:02.610,-0.945,0.27,0.156
3/22/2023 09:17:02.620,-0.941,0.273,0.16
3/22/2023 09:17:02.630,-0.941,0.27,0.156
3/22/2023 09:17:02.640,-0.941,0.27,0.164
3/22/2023 09:17:02.650,-0.941,0.27,0.164
3/22/2023 09:17:02.660,-0.941,0.266,0.168
3/22/2023 09:17:02.670,-0.938,0.262,0.172
3/22/2023 09:17:02.680,-0.938,0.266,0.172
3/22/2023 09:17:02.690,-0.938,0.266,0.168
3/22/2023 09:17:02.700,-0.941,0.27,0.168
3/22/2023 09:17:02.710,-0.941,0.27,0.168
3/22/2023 09:17:02.720,-0.941,0.266,0.172
3/22/2023 09:17:02.730,-0.945,0.266,0.168
3/22/2023 09:17:02.740,-0.953,0.27,0.168
3/22/2023 09:17:02.750,-0.957,0.27,0.168
3/22/2023 09:17:02.760,-0.957,0.27,0.168
3/22/2023 09:17:02.770,-0.961,0.27,0.164
3/22/2023 09:17:02.780,-0.953,0.273,0.168
3/22/2023 09:17:02.790,-0.945,0.27,0.164
3/22/2023 09:17:02.800,-0.945,0.273,0.16
3/22/2023 09:17:02.810,-0.941,0.27,0.164
3/22/2023 09:17:02.820,-0.938,0.273,0.16
3/22/2023 09:17:02.830,-0.938,0.27,0.16
3/22/2023 09:17:02.840,-0.938,0.27,0.16
3/22/2023 09:17:02.850,-0.941,0.27,0.156
3/22/2023 09:17:02.860,-0.941,0.273,0.156
3/22/2023 09:17:02.870,-0.941,0.273,0.152
3/22/2023 09:17:02.880,-0.941,0.27,0.148
3/22/2023 09:17:02.890,-0.941,0.27,0.152
3/22/2023 09:17:02.900,-0.945,0.27,0.148
3/22/2023 09:17:02.910,-0.949,0.27,0.156
3/22/2023 09:17:02.920,-0.949,0.27,0.148
3/22/2023 09:17:02.930,-0.949,0.27,0.148
3/22/2023 09:17:02.940,-0.949,0.27,0.148
3/22/2023 09:17:02.950,-0.945,0.27,0.148
3/22/2023 09:17:02.960,-0.949,0.27,0.141
3/22/2023 09:17:02.970,-0.949,0.27,0.148
3/22/2023 09:17:02.980,-0.949,0.27,0.148
3/22/2023 09:17:02.990,-0.945,0.27,0.152
3/22/2023 09:17:03.000,-0.953,0.273,0.152
3/22/2023 09:17:03.010,-0.941,0.266,0.152
3/22/2023 09:17:03.020,-0.941,0.262,0.145
3/22/2023 09:17:03.030,-0.941,0.266,0.145
3/22/2023 09:17:03.040,-0.945,0.258,0.141
3/22/2023 09:17:03.050,-0.949,0.258,0.141
3/22/2023 09:17:03.060,-0.949,0.266,0.141
3/22/2023 09:17:03.070,-0.945,0.262,0.141
3/22/2023 09:17:03.080,-0.949,0.258,0.137
3/22/2023 09:17:03.090,-0.949,0.254,0.141
3/22/2023 09:17:03.100,-0.953,0.254,0.145
3/22/2023 09:17:03.110,-0.949,0.254,0.152
3/22/2023 09:17:03.120,-0.949,0.242,0.152
3/22/2023 09:17:03.130,-0.945,0.25,0.148
3/22/2023 09:17:03.140,-0.945,0.254,0.145
3/22/2023 09:17:03.150,-0.945,0.254,0.145
3/22/2023 09:17:03.160,-0.949,0.254,0.141
3/22/2023 09:17:03.170,-0.953,0.258,0.141
3/22/2023 09:17:03.180,-0.957,0.258,0.145
3/22/2023 09:17:03.190,-0.949,0.262,0.148
3/22/2023 09:17:03.200,-0.949,0.258,0.145
3/22/2023 09:17:03.210,-0.945,0.254,0.145
3/22/2023 09:17:03.220,-0.945,0.254,0.148
3/22/2023 09:17:03.230,-0.941,0.254,0.152
3/22/2023 09:17:03.240,-0.941,0.25,0.152
3/22/2023 09:17:03.250,-0.941,0.25,0.152
3/22/2023 09:17:03.260,-0.941,0.254,0.148
3/22/2023 09:17:03.270,-0.941,0.262,0.145
3/22/2023 09:17:03.280,-0.941,0.266,0.141
3/22/2023 09:17:03.290,-0.953,0.262,0.141
3/22/2023 09:17:03.300,-0.949,0.258,0.141
3/22/2023 09:17:03.310,-0.945,0.258,0.141
3/22/2023 09:17:03.320,-0.945,0.262,0.145
3/22/2023 09:17:03.330,-0.941,0.27,0.145
3/22/2023 09:17:03.340,-0.941,0.266,0.145
3/22/2023 09:17:03.350,-0.938,0.266,0.145
3/22/2023 09:17:03.360,-0.934,0.27,0.145
3/22/2023 09:17:03.370,-0.93,0.27,0.145
3/22/2023 09:17:03.380,-0.918,0.27,0.145
3/22/2023 09:17:03.390,-0.914,0.27,0.141
3/22/2023 09:17:03.400,-0.91,0.273,0.145
3/22/2023 09:17:03.410,-0.906,0.273,0.141
3/22/2023 09:17:03.420,-0.922,0.273,0.148
3/22/2023 09:17:03.430,-0.938,0.277,0.148
3/22/2023 09:17:03.440,-0.953,0.277,0.152
3/22/2023 09:17:03.450,-0.969,0.277,0.156
3/22/2023 09:17:03.460,-0.984,0.273,0.152
3/22/2023 09:17:03.470,-0.988,0.273,0.152
3/22/2023 09:17:03.480,-0.992,0.277,0.16
3/22/2023 09:17:03.490,-1,0.281,0.164
3/22/2023 09:17:03.500,-1.02,0.289,0.164
3/22/2023 09:17:03.510,-1.016,0.281,0.172
3/22/2023 09:17:03.520,-1,0.285,0.172
3/22/2023 09:17:03.530,-0.984,0.281,0.172
3/22/2023 09:17:03.540,-0.973,0.277,0.172
3/22/2023 09:17:03.550,-0.953,0.273,0.168
3/22/2023 09:17:03.560,-0.934,0.27,0.164
3/22/2023 09:17:03.570,-0.914,0.258,0.164
3/22/2023 09:17:03.580,-0.895,0.25,0.164
3/22/2023 09:17:03.590,-0.883,0.246,0.16
3/22/2023 09:17:03.600,-0.867,0.246,0.156
3/22/2023 09:17:03.610,-0.855,0.238,0.152
3/22/2023 09:17:03.620,-0.84,0.234,0.148
3/22/2023 09:17:03.630,-0.832,0.227,0.141
3/22/2023 09:17:03.640,-0.836,0.227,0.129
3/22/2023 09:17:03.650,-0.848,0.227,0.121
3/22/2023 09:17:03.660,-0.871,0.227,0.113
3/22/2023 09:17:03.670,-0.902,0.238,0.109
3/22/2023 09:17:03.680,-0.926,0.242,0.117
3/22/2023 09:17:03.690,-0.949,0.258,0.117
3/22/2023 09:17:03.700,-0.969,0.27,0.121
3/22/2023 09:17:03.710,-0.992,0.285,0.117
3/22/2023 09:17:03.720,-1.008,0.301,0.113
3/22/2023 09:17:03.730,-1.027,0.313,0.109
3/22/2023 09:17:03.740,-1.039,0.324,0.113
3/22/2023 09:17:03.750,-1.043,0.324,0.117
3/22/2023 09:17:03.760,-1.039,0.32,0.121
3/22/2023 09:17:03.770,-1.023,0.32,0.129
3/22/2023 09:17:03.780,-1.004,0.316,0.137
3/22/2023 09:17:03.790,-0.98,0.313,0.141
3/22/2023 09:17:03.800,-0.949,0.305,0.145
3/22/2023 09:17:03.810,-0.926,0.297,0.152
3/22/2023 09:17:03.820,-0.914,0.301,0.152
3/22/2023 09:17:03.830,-0.91,0.301,0.145
3/22/2023 09:17:03.840,-0.91,0.301,0.148
3/22/2023 09:17:03.850,-0.91,0.297,0.156
3/22/2023 09:17:03.860,-0.914,0.285,0.156
3/22/2023 09:17:03.870,-0.93,0.273,0.156
3/22/2023 09:17:03.880,-0.945,0.266,0.16
3/22/2023 09:17:03.890,-0.953,0.262,0.164
3/22/2023 09:17:03.900,-0.961,0.262,0.168
3/22/2023 09:17:03.910,-0.961,0.254,0.168
3/22/2023 09:17:03.920,-0.965,0.25,0.164
3/22/2023 09:17:03.930,-0.965,0.242,0.164
3/22/2023 09:17:03.940,-0.953,0.246,0.152
3/22/2023 09:17:03.950,-0.945,0.258,0.152
3/22/2023 09:17:03.960,-0.941,0.266,0.145
3/22/2023 09:17:03.970,-0.941,0.273,0.141
3/22/2023 09:17:03.980,-0.934,0.273,0.141
3/22/2023 09:17:03.990,-0.93,0.277,0.141
3/22/2023 09:17:04.000,-0.934,0.289,0.145
3/22/2023 09:17:04.010,-0.93,0.297,0.141
3/22/2023 09:17:04.020,-0.926,0.301,0.141
3/22/2023 09:17:04.030,-0.922,0.297,0.137
3/22/2023 09:17:04.040,-0.918,0.301,0.137
3/22/2023 09:17:04.050,-0.922,0.305,0.137
3/22/2023 09:17:04.060,-0.922,0.309,0.145
3/22/2023 09:17:04.070,-0.926,0.313,0.141
3/22/2023 09:17:04.080,-0.934,0.313,0.148
3/22/2023 09:17:04.090,-0.938,0.309,0.152
3/22/2023 09:17:04.100,-0.938,0.305,0.156
3/22/2023 09:17:04.110,-0.941,0.301,0.16
3/22/2023 09:17:04.120,-0.941,0.301,0.156
3/22/2023 09:17:04.130,-0.938,0.297,0.156
3/22/2023 09:17:04.140,-0.934,0.289,0.164
3/22/2023 09:17:04.150,-0.93,0.281,0.16
3/22/2023 09:17:04.160,-0.926,0.273,0.16
3/22/2023 09:17:04.170,-0.926,0.273,0.164
3/22/2023 09:17:04.180,-0.914,0.277,0.168
3/22/2023 09:17:04.190,-0.914,0.281,0.164
3/22/2023 09:17:04.200,-0.926,0.285,0.16
3/22/2023 09:17:04.210,-0.93,0.293,0.16
3/22/2023 09:17:04.220,-0.938,0.297,0.152
3/22/2023 09:17:04.230,-0.945,0.297,0.152
3/22/2023 09:17:04.240,-0.945,0.305,0.148
3/22/2023 09:17:04.250,-0.953,0.305,0.145
3/22/2023 09:17:04.260,-0.953,0.305,0.145
3/22/2023 09:17:04.270,-0.953,0.301,0.148
3/22/2023 09:17:04.280,-0.949,0.305,0.148
3/22/2023 09:17:04.290,-0.945,0.309,0.152
3/22/2023 09:17:04.300,-0.941,0.309,0.156
3/22/2023 09:17:04.310,-0.941,0.309,0.152
3/22/2023 09:17:04.320,-0.938,0.309,0.156
3/22/2023 09:17:04.330,-0.938,0.305,0.152
3/22/2023 09:17:04.340,-0.938,0.305,0.148
3/22/2023 09:17:04.350,-0.938,0.301,0.152
3/22/2023 09:17:04.360,-0.938,0.293,0.16
3/22/2023 09:17:04.370,-0.938,0.285,0.168
3/22/2023 09:17:04.380,-0.934,0.277,0.172
3/22/2023 09:17:04.390,-0.93,0.27,0.172
3/22/2023 09:17:04.400,-0.922,0.266,0.172
3/22/2023 09:17:04.410,-0.922,0.262,0.172
3/22/2023 09:17:04.420,-0.918,0.258,0.172
3/22/2023 09:17:04.430,-0.926,0.254,0.172
3/22/2023 09:17:04.440,-0.934,0.25,0.172
3/22/2023 09:17:04.450,-0.938,0.25,0.168
3/22/2023 09:17:04.460,-0.941,0.258,0.172
3/22/2023 09:17:04.470,-0.949,0.266,0.172
3/22/2023 09:17:04.480,-0.949,0.273,0.168
3/22/2023 09:17:04.490,-0.945,0.27,0.164
3/22/2023 09:17:04.500,-0.953,0.273,0.16
3/22/2023 09:17:04.510,-0.945,0.273,0.168
3/22/2023 09:17:04.520,-0.941,0.273,0.164
3/22/2023 09:17:04.530,-0.945,0.27,0.164
3/22/2023 09:17:04.540,-0.945,0.273,0.168
3/22/2023 09:17:04.550,-0.938,0.277,0.168
3/22/2023 09:17:04.560,-0.938,0.281,0.168
3/22/2023 09:17:04.570,-0.934,0.281,0.168
3/22/2023 09:17:04.580,-0.938,0.285,0.172
3/22/2023 09:17:04.590,-0.934,0.281,0.164
3/22/2023 09:17:04.600,-0.934,0.277,0.16
3/22/2023 09:17:04.610,-0.926,0.281,0.16
3/22/2023 09:17:04.620,-0.926,0.277,0.16
3/22/2023 09:17:04.630,-0.926,0.273,0.156
3/22/2023 09:17:04.640,-0.926,0.27,0.156
3/22/2023 09:17:04.650,-0.934,0.27,0.16
3/22/2023 09:17:04.660,-0.926,0.277,0.152
3/22/2023 09:17:04.670,-0.93,0.285,0.156
3/22/2023 09:17:04.680,-0.938,0.293,0.156
3/22/2023 09:17:04.690,-0.938,0.301,0.148
3/22/2023 09:17:04.700,-0.934,0.305,0.148
3/22/2023 09:17:04.710,-0.934,0.309,0.145
3/22/2023 09:17:04.720,-0.938,0.309,0.145
3/22/2023 09:17:04.730,-0.941,0.309,0.148
3/22/2023 09:17:04.740,-0.945,0.309,0.145
3/22/2023 09:17:04.750,-0.953,0.309,0.145
3/22/2023 09:17:04.760,-0.953,0.309,0.148
3/22/2023 09:17:04.770,-0.949,0.309,0.152
3/22/2023 09:17:04.780,-0.941,0.309,0.152
3/22/2023 09:17:04.790,-0.938,0.309,0.152
3/22/2023 09:17:04.800,-0.926,0.305,0.156
3/22/2023 09:17:04.810,-0.934,0.305,0.148
3/22/2023 09:17:04.820,-0.934,0.305,0.145
3/22/2023 09:17:04.830,-0.93,0.313,0.156
3/22/2023 09:17:04.840,-0.93,0.309,0.152
3/22/2023 09:17:04.850,-0.938,0.305,0.156
3/22/2023 09:17:04.860,-0.949,0.301,0.156
3/22/2023 09:17:04.870,-0.957,0.297,0.148
3/22/2023 09:17:04.880,-0.961,0.297,0.145
3/22/2023 09:17:04.890,-0.965,0.293,0.152
3/22/2023 09:17:04.900,-0.965,0.285,0.148
3/22/2023 09:17:04.910,-0.965,0.281,0.145
3/22/2023 09:17:04.920,-0.957,0.285,0.148
3/22/2023 09:17:04.930,-0.949,0.285,0.145
3/22/2023 09:17:04.940,-0.941,0.281,0.145
3/22/2023 09:17:04.950,-0.941,0.281,0.145
3/22/2023 09:17:04.960,-0.941,0.277,0.145
3/22/2023 09:17:04.970,-0.941,0.277,0.141
3/22/2023 09:17:04.980,-0.941,0.277,0.141
3/22/2023 09:17:04.990,-0.941,0.285,0.133
3/22/2023 09:17:05.000,-0.949,0.293,0.125
3/22/2023 09:17:05.010,-0.945,0.285,0.133
3/22/2023 09:17:05.020,-0.945,0.281,0.137
3/22/2023 09:17:05.030,-0.953,0.273,0.133
3/22/2023 09:17:05.040,-0.961,0.27,0.137
3/22/2023 09:17:05.050,-0.957,0.266,0.137
3/22/2023 09:17:05.060,-0.961,0.262,0.133
3/22/2023 09:17:05.070,-0.961,0.258,0.137
3/22/2023 09:17:05.080,-0.969,0.262,0.141
3/22/2023 09:17:05.090,-0.969,0.262,0.137
3/22/2023 09:17:05.100,-0.965,0.258,0.141
3/22/2023 09:17:05.110,-0.965,0.254,0.141
3/22/2023 09:17:05.120,-0.961,0.254,0.141
3/22/2023 09:17:05.130,-0.953,0.258,0.141
3/22/2023 09:17:05.140,-0.957,0.254,0.145
3/22/2023 09:17:05.150,-0.953,0.254,0.141
3/22/2023 09:17:05.160,-0.953,0.246,0.141
3/22/2023 09:17:05.170,-0.953,0.238,0.141
3/22/2023 09:17:05.180,-0.945,0.238,0.141
3/22/2023 09:17:05.190,-0.945,0.238,0.145
3/22/2023 09:17:05.200,-0.941,0.242,0.148
3/22/2023 09:17:05.210,-0.941,0.246,0.148
3/22/2023 09:17:05.220,-0.941,0.25,0.148
3/22/2023 09:17:05.230,-0.945,0.25,0.16
3/22/2023 09:17:05.240,-0.949,0.242,0.168
3/22/2023 09:17:05.250,-0.957,0.238,0.168
3/22/2023 09:17:05.260,-0.965,0.234,0.168
3/22/2023 09:17:05.270,-0.973,0.23,0.168
3/22/2023 09:17:05.280,-0.973,0.227,0.164
3/22/2023 09:17:05.290,-0.973,0.223,0.168
3/22/2023 09:17:05.300,-0.973,0.227,0.172
3/22/2023 09:17:05.310,-0.973,0.227,0.172
3/22/2023 09:17:05.320,-0.977,0.223,0.176
3/22/2023 09:17:05.330,-0.977,0.227,0.176
3/22/2023 09:17:05.340,-0.977,0.227,0.176
3/22/2023 09:17:05.350,-0.98,0.23,0.172
3/22/2023 09:17:05.360,-0.984,0.23,0.172
3/22/2023 09:17:05.370,-0.992,0.23,0.172
3/22/2023 09:17:05.380,-0.988,0.223,0.172
3/22/2023 09:17:05.390,-0.988,0.219,0.172
3/22/2023 09:17:05.400,-1,0.207,0.172
3/22/2023 09:17:05.410,-1.008,0.195,0.168
3/22/2023 09:17:05.420,-1.012,0.191,0.168
3/22/2023 09:17:05.430,-1.012,0.191,0.164
3/22/2023 09:17:05.440,-1.012,0.195,0.152
3/22/2023 09:17:05.450,-1.012,0.195,0.145
3/22/2023 09:17:05.460,-1.004,0.199,0.148
3/22/2023 09:17:05.470,-0.992,0.203,0.145
3/22/2023 09:17:05.480,-0.984,0.211,0.148
3/22/2023 09:17:05.490,-0.973,0.215,0.148
3/22/2023 09:17:05.500,-0.969,0.223,0.148
3/22/2023 09:17:05.510,-0.949,0.223,0.156
3/22/2023 09:17:05.520,-0.938,0.227,0.156
3/22/2023 09:17:05.530,-0.926,0.223,0.156
3/22/2023 09:17:05.540,-0.926,0.215,0.164
3/22/2023 09:17:05.550,-0.93,0.211,0.172
3/22/2023 09:17:05.560,-0.934,0.211,0.176
3/22/2023 09:17:05.570,-0.934,0.207,0.18
3/22/2023 09:17:05.580,-0.938,0.203,0.188
3/22/2023 09:17:05.590,-0.934,0.199,0.188
3/22/2023 09:17:05.600,-0.922,0.195,0.191
3/22/2023 09:17:05.610,-0.918,0.195,0.203
3/22/2023 09:17:05.620,-0.918,0.195,0.211
3/22/2023 09:17:05.630,-0.926,0.195,0.211
3/22/2023 09:17:05.640,-0.934,0.195,0.219
3/22/2023 09:17:05.650,-0.934,0.195,0.23
3/22/2023 09:17:05.660,-0.938,0.199,0.242
3/22/2023 09:17:05.670,-0.938,0.199,0.246
3/22/2023 09:17:05.680,-0.941,0.203,0.246
3/22/2023 09:17:05.690,-0.941,0.211,0.242
3/22/2023 09:17:05.700,-0.938,0.219,0.254
3/22/2023 09:17:05.710,-0.934,0.215,0.266
3/22/2023 09:17:05.720,-0.922,0.223,0.293
3/22/2023 09:17:05.730,-0.906,0.238,0.324
3/22/2023 09:17:05.740,-0.898,0.254,0.324
3/22/2023 09:17:05.750,-0.891,0.25,0.324
3/22/2023 09:17:05.760,-0.863,0.219,0.316
3/22/2023 09:17:05.770,-0.855,0.195,0.309
3/22/2023 09:17:05.780,-0.859,0.203,0.305
3/22/2023 09:17:05.790,-0.855,0.227,0.285
3/22/2023 09:17:05.800,-0.863,0.238,0.277
3/22/2023 09:17:05.810,-0.871,0.23,0.281
3/22/2023 09:17:05.820,-0.879,0.223,0.297
3/22/2023 09:17:05.830,-0.891,0.215,0.301
3/22/2023 09:17:05.840,-0.898,0.23,0.285
3/22/2023 09:17:05.850,-0.906,0.25,0.266
3/22/2023 09:17:05.860,-0.906,0.258,0.262
3/22/2023 09:17:05.870,-0.91,0.238,0.281
3/22/2023 09:17:05.880,-0.91,0.215,0.293
3/22/2023 09:17:05.890,-0.906,0.211,0.297
3/22/2023 09:17:05.900,-0.898,0.215,0.289
3/22/2023 09:17:05.910,-0.906,0.223,0.281
3/22/2023 09:17:05.920,-0.906,0.215,0.285
3/22/2023 09:17:05.930,-0.902,0.211,0.289
3/22/2023 09:17:05.940,-0.902,0.215,0.289
3/22/2023 09:17:05.950,-0.902,0.223,0.289
3/22/2023 09:17:05.960,-0.906,0.23,0.281
3/22/2023 09:17:05.970,-0.91,0.238,0.277
3/22/2023 09:17:05.980,-0.914,0.242,0.285
3/22/2023 09:17:05.990,-0.918,0.238,0.293
3/22/2023 09:17:06.000,-0.934,0.234,0.297
3/22/2023 09:17:06.010,-0.93,0.23,0.309
3/22/2023 09:17:06.020,-0.938,0.227,0.305
3/22/2023 09:17:06.030,-0.941,0.219,0.305
3/22/2023 09:17:06.040,-0.934,0.207,0.309
3/22/2023 09:17:06.050,-0.922,0.199,0.313
3/22/2023 09:17:06.060,-0.91,0.199,0.305
3/22/2023 09:17:06.070,-0.898,0.199,0.305
3/22/2023 09:17:06.080,-0.891,0.211,0.297
3/22/2023 09:17:06.090,-0.883,0.215,0.289
3/22/2023 09:17:06.100,-0.883,0.211,0.285
3/22/2023 09:17:06.110,-0.887,0.199,0.293
3/22/2023 09:17:06.120,-0.898,0.188,0.293
3/22/2023 09:17:06.130,-0.918,0.168,0.305
3/22/2023 09:17:06.140,-0.93,0.152,0.32
3/22/2023 09:17:06.150,-0.938,0.164,0.301
3/22/2023 09:17:06.160,-0.945,0.211,0.27
3/22/2023 09:17:06.170,-0.965,0.246,0.258
3/22/2023 09:17:06.180,-0.973,0.242,0.25
3/22/2023 09:17:06.190,-0.984,0.203,0.25
3/22/2023 09:17:06.200,-0.996,0.188,0.258
3/22/2023 09:17:06.210,-1.004,0.18,0.277
3/22/2023 09:17:06.220,-1.008,0.203,0.27
3/22/2023 09:17:06.230,-1.031,0.246,0.238
3/22/2023 09:17:06.240,-1.07,0.27,0.215
3/22/2023 09:17:06.250,-1.098,0.27,0.207
3/22/2023 09:17:06.260,-1.094,0.266,0.207
3/22/2023 09:17:06.270,-1.078,0.273,0.195
3/22/2023 09:17:06.280,-1.043,0.289,0.168
3/22/2023 09:17:06.290,-0.996,0.281,0.152
3/22/2023 09:17:06.300,-0.945,0.258,0.141
3/22/2023 09:17:06.310,-0.906,0.238,0.137
3/22/2023 09:17:06.320,-0.879,0.23,0.133
3/22/2023 09:17:06.330,-0.867,0.227,0.137
3/22/2023 09:17:06.340,-0.863,0.223,0.133
3/22/2023 09:17:06.350,-0.867,0.215,0.129
3/22/2023 09:17:06.360,-0.879,0.215,0.121
3/22/2023 09:17:06.370,-0.91,0.219,0.109
3/22/2023 09:17:06.380,-0.941,0.223,0.105
3/22/2023 09:17:06.390,-0.98,0.227,0.102
3/22/2023 09:17:06.400,-1.016,0.227,0.09
3/22/2023 09:17:06.410,-1.039,0.227,0.074
3/22/2023 09:17:06.420,-1.063,0.227,0.07
3/22/2023 09:17:06.430,-1.066,0.23,0.059
3/22/2023 09:17:06.440,-1.07,0.238,0.047
3/22/2023 09:17:06.450,-1.066,0.254,0.043
3/22/2023 09:17:06.460,-1.055,0.266,0.039
3/22/2023 09:17:06.470,-1.039,0.27,0.035
3/22/2023 09:17:06.480,-1.027,0.277,0.035
3/22/2023 09:17:06.490,-1.016,0.293,0.035
3/22/2023 09:17:06.500,-1.012,0.316,0.035
3/22/2023 09:17:06.510,-0.98,0.316,0.043
3/22/2023 09:17:06.520,-0.957,0.32,0.039
3/22/2023 09:17:06.530,-0.949,0.316,0.039
3/22/2023 09:17:06.540,-0.941,0.309,0.055
3/22/2023 09:17:06.550,-0.902,0.297,0.051
3/22/2023 09:17:06.560,-0.875,0.285,0.059
3/22/2023 09:17:06.570,-0.871,0.273,0.066
3/22/2023 09:17:06.580,-0.875,0.27,0.078
3/22/2023 09:17:06.590,-0.887,0.273,0.082
3/22/2023 09:17:06.600,-0.891,0.27,0.082
3/22/2023 09:17:06.610,-0.887,0.242,0.082
3/22/2023 09:17:06.620,-0.879,0.219,0.086
3/22/2023 09:17:06.630,-0.859,0.215,0.098
3/22/2023 09:17:06.640,-0.848,0.227,0.102
3/22/2023 09:17:06.650,-0.836,0.242,0.102
3/22/2023 09:17:06.660,-0.813,0.25,0.102
3/22/2023 09:17:06.670,-0.809,0.246,0.105
3/22/2023 09:17:06.680,-0.816,0.238,0.117
3/22/2023 09:17:06.690,-0.84,0.227,0.117
3/22/2023 09:17:06.700,-0.883,0.23,0.109
3/22/2023 09:17:06.710,-0.953,0.246,0.09
3/22/2023 09:17:06.720,-1.027,0.262,0.066
3/22/2023 09:17:06.730,-1.105,0.27,0.055
3/22/2023 09:17:06.740,-1.184,0.277,0.043
3/22/2023 09:17:06.750,-1.227,0.277,0.035
3/22/2023 09:17:06.760,-1.246,0.273,0.027
3/22/2023 09:17:06.770,-1.219,0.277,0.023
3/22/2023 09:17:06.780,-1.172,0.281,0.027
3/22/2023 09:17:06.790,-1.113,0.281,0.031
3/22/2023 09:17:06.800,-1.047,0.293,0.043
3/22/2023 09:17:06.810,-0.969,0.301,0.066
3/22/2023 09:17:06.820,-0.891,0.309,0.098
3/22/2023 09:17:06.830,-0.828,0.328,0.125
3/22/2023 09:17:06.840,-0.793,0.355,0.137
3/22/2023 09:17:06.850,-0.777,0.379,0.148
3/22/2023 09:17:06.860,-0.781,0.398,0.137
3/22/2023 09:17:06.870,-0.801,0.43,0.109
3/22/2023 09:17:06.880,-0.824,0.449,0.09
3/22/2023 09:17:06.890,-0.855,0.461,0.074
3/22/2023 09:17:06.900,-0.895,0.457,0.074
3/22/2023 09:17:06.910,-0.926,0.438,0.078
3/22/2023 09:17:06.920,-0.957,0.414,0.09
3/22/2023 09:17:06.930,-0.988,0.391,0.102
3/22/2023 09:17:06.940,-1.004,0.367,0.109
3/22/2023 09:17:06.950,-1.008,0.336,0.129
3/22/2023 09:17:06.960,-1.008,0.301,0.152
3/22/2023 09:17:06.970,-0.988,0.27,0.184
3/22/2023 09:17:06.980,-0.961,0.238,0.207
3/22/2023 09:17:06.990,-0.941,0.203,0.223
3/22/2023 09:17:07.000,-0.934,0.176,0.23
3/22/2023 09:17:07.010,-0.914,0.172,0.238
3/22/2023 09:17:07.020,-0.902,0.191,0.227
3/22/2023 09:17:07.030,-0.902,0.219,0.23
3/22/2023 09:17:07.040,-0.895,0.25,0.27
3/22/2023 09:17:07.050,-0.887,0.258,0.309
3/22/2023 09:17:07.060,-0.883,0.258,0.336
3/22/2023 09:17:07.070,-0.883,0.277,0.332
3/22/2023 09:17:07.080,-0.887,0.309,0.305
3/22/2023 09:17:07.090,-0.91,0.332,0.262
3/22/2023 09:17:07.100,-0.934,0.348,0.242
3/22/2023 09:17:07.110,-0.949,0.344,0.242
3/22/2023 09:17:07.120,-0.965,0.344,0.246
3/22/2023 09:17:07.130,-0.973,0.363,0.242
3/22/2023 09:17:07.140,-0.973,0.371,0.23
3/22/2023 09:17:07.150,-0.973,0.375,0.219
3/22/2023 09:17:07.160,-0.965,0.355,0.215
3/22/2023 09:17:07.170,-0.961,0.328,0.211
3/22/2023 09:17:07.180,-0.953,0.305,0.215
3/22/2023 09:17:07.190,-0.945,0.289,0.215
3/22/2023 09:17:07.200,-0.949,0.277,0.211
3/22/2023 09:17:07.210,-0.949,0.266,0.199
3/22/2023 09:17:07.220,-0.957,0.27,0.188
3/22/2023 09:17:07.230,-0.953,0.285,0.176
3/22/2023 09:17:07.240,-0.957,0.297,0.172
3/22/2023 09:17:07.250,-0.949,0.297,0.172
3/22/2023 09:17:07.260,-0.953,0.281,0.172
3/22/2023 09:17:07.270,-0.949,0.289,0.156
3/22/2023 09:17:07.280,-0.941,0.301,0.148
3/22/2023 09:17:07.290,-0.934,0.301,0.145
3/22/2023 09:17:07.300,-0.934,0.301,0.145
3/22/2023 09:17:07.310,-0.934,0.289,0.145
3/22/2023 09:17:07.320,-0.934,0.297,0.145
3/22/2023 09:17:07.330,-0.938,0.301,0.141
3/22/2023 09:17:07.340,-0.938,0.305,0.141
3/22/2023 09:17:07.350,-0.941,0.305,0.141
3/22/2023 09:17:07.360,-0.934,0.293,0.141
3/22/2023 09:17:07.370,-0.934,0.289,0.137
3/22/2023 09:17:07.380,-0.93,0.285,0.137
3/22/2023 09:17:07.390,-0.922,0.289,0.137
3/22/2023 09:17:07.400,-0.914,0.285,0.137
3/22/2023 09:17:07.410,-0.914,0.281,0.137
3/22/2023 09:17:07.420,-0.91,0.277,0.129
3/22/2023 09:17:07.430,-0.91,0.273,0.133
3/22/2023 09:17:07.440,-0.918,0.273,0.141
3/22/2023 09:17:07.450,-0.918,0.27,0.141
3/22/2023 09:17:07.460,-0.922,0.281,0.137
3/22/2023 09:17:07.470,-0.926,0.293,0.137
3/22/2023 09:17:07.480,-0.926,0.289,0.137
3/22/2023 09:17:07.490,-0.93,0.277,0.137
3/22/2023 09:17:07.500,-0.938,0.273,0.137
3/22/2023 09:17:07.510,-0.922,0.27,0.145
3/22/2023 09:17:07.520,-0.914,0.277,0.145
3/22/2023 09:17:07.530,-0.918,0.281,0.145
3/22/2023 09:17:07.540,-0.922,0.281,0.145
3/22/2023 09:17:07.550,-0.914,0.277,0.152
3/22/2023 09:17:07.560,-0.918,0.277,0.156
3/22/2023 09:17:07.570,-0.922,0.277,0.152
3/22/2023 09:17:07.580,-0.93,0.27,0.164
3/22/2023 09:17:07.590,-0.926,0.258,0.164
3/22/2023 09:17:07.600,-0.918,0.262,0.18
3/22/2023 09:17:07.610,-0.91,0.27,0.191
3/22/2023 09:17:07.620,-0.914,0.289,0.184
3/22/2023 09:17:07.630,-0.918,0.316,0.176
3/22/2023 09:17:07.640,-0.922,0.348,0.172
3/22/2023 09:17:07.650,-0.91,0.363,0.172
3/22/2023 09:17:07.660,-0.902,0.344,0.164
3/22/2023 09:17:07.670,-0.926,0.32,0.168
3/22/2023 09:17:07.680,-0.934,0.301,0.172
3/22/2023 09:17:07.690,-0.926,0.289,0.18
3/22/2023 09:17:07.700,-0.926,0.289,0.184
3/22/2023 09:17:07.710,-0.918,0.285,0.195
3/22/2023 09:17:07.720,-0.922,0.273,0.211
3/22/2023 09:17:07.730,-0.926,0.27,0.223
3/22/2023 09:17:07.740,-0.934,0.266,0.227
3/22/2023 09:17:07.750,-0.934,0.277,0.219
3/22/2023 09:17:07.760,-0.934,0.285,0.219
3/22/2023 09:17:07.770,-0.938,0.293,0.215
3/22/2023 09:17:07.780,-0.938,0.297,0.203
3/22/2023 09:17:07.790,-0.945,0.309,0.184
3/22/2023 09:17:07.800,-0.953,0.324,0.176
3/22/2023 09:17:07.810,-0.953,0.328,0.18
3/22/2023 09:17:07.820,-0.945,0.32,0.191
3/22/2023 09:17:07.830,-0.941,0.313,0.203
3/22/2023 09:17:07.840,-0.93,0.301,0.211
3/22/2023 09:17:07.850,-0.93,0.297,0.211
3/22/2023 09:17:07.860,-0.926,0.301,0.199
3/22/2023 09:17:07.870,-0.922,0.293,0.188
3/22/2023 09:17:07.880,-0.922,0.297,0.168
3/22/2023 09:17:07.890,-0.93,0.305,0.156
3/22/2023 09:17:07.900,-0.941,0.32,0.141
3/22/2023 09:17:07.910,-0.949,0.344,0.141
3/22/2023 09:17:07.920,-0.945,0.352,0.16
3/22/2023 09:17:07.930,-0.934,0.348,0.172
3/22/2023 09:17:07.940,-0.934,0.34,0.164
3/22/2023 09:17:07.950,-0.922,0.324,0.16
3/22/2023 09:17:07.960,-0.91,0.301,0.164
3/22/2023 09:17:07.970,-0.91,0.281,0.168
3/22/2023 09:17:07.980,-0.914,0.258,0.172
3/22/2023 09:17:07.990,-0.906,0.25,0.172
3/22/2023 09:17:08.000,-0.91,0.266,0.172
3/22/2023 09:17:08.010,-0.91,0.262,0.176
3/22/2023 09:17:08.020,-0.91,0.246,0.18
3/22/2023 09:17:08.030,-0.922,0.234,0.195
3/22/2023 09:17:08.040,-0.93,0.234,0.195
3/22/2023 09:17:08.050,-0.938,0.25,0.195
3/22/2023 09:17:08.060,-0.945,0.262,0.195
3/22/2023 09:17:08.070,-0.957,0.27,0.195
3/22/2023 09:17:08.080,-0.957,0.277,0.195
3/22/2023 09:17:08.090,-0.957,0.273,0.191
3/22/2023 09:17:08.100,-0.953,0.27,0.188
3/22/2023 09:17:08.110,-0.957,0.277,0.176
3/22/2023 09:17:08.120,-0.957,0.297,0.168
3/22/2023 09:17:08.130,-0.949,0.277,0.141
3/22/2023 09:17:08.140,-0.957,0.227,0.18
3/22/2023 09:17:08.150,-0.969,0.23,0.184
3/22/2023 09:17:08.160,-0.965,0.273,0.168
3/22/2023 09:17:08.170,-0.953,0.285,0.172
3/22/2023 09:17:08.180,-0.938,0.273,0.176
3/22/2023 09:17:08.190,-0.941,0.273,0.16
3/22/2023 09:17:08.200,-0.957,0.277,0.145
3/22/2023 09:17:08.210,-0.953,0.27,0.152
3/22/2023 09:17:08.220,-0.945,0.254,0.172
3/22/2023 09:17:08.230,-0.941,0.242,0.191
3/22/2023 09:17:08.240,-0.941,0.25,0.203
3/22/2023 09:17:08.250,-0.941,0.27,0.211
3/22/2023 09:17:08.260,-0.918,0.273,0.203
3/22/2023 09:17:08.270,-0.91,0.27,0.199
3/22/2023 09:17:08.280,-0.906,0.258,0.203
3/22/2023 09:17:08.290,-0.906,0.25,0.203
3/22/2023 09:17:08.300,-0.906,0.25,0.191
3/22/2023 09:17:08.310,-0.902,0.266,0.188
3/22/2023 09:17:08.320,-0.895,0.277,0.191
3/22/2023 09:17:08.330,-0.887,0.277,0.191
3/22/2023 09:17:08.340,-0.879,0.273,0.191
3/22/2023 09:17:08.350,-0.883,0.27,0.188
3/22/2023 09:17:08.360,-0.887,0.277,0.172
3/22/2023 09:17:08.370,-0.898,0.293,0.145
3/22/2023 09:17:08.380,-0.91,0.313,0.125
3/22/2023 09:17:08.390,-0.922,0.316,0.113
3/22/2023 09:17:08.400,-0.941,0.324,0.113
3/22/2023 09:17:08.410,-0.961,0.316,0.121
3/22/2023 09:17:08.420,-0.969,0.297,0.137
3/22/2023 09:17:08.430,-0.973,0.281,0.156
3/22/2023 09:17:08.440,-0.965,0.273,0.168
3/22/2023 09:17:08.450,-0.953,0.27,0.172
3/22/2023 09:17:08.460,-0.945,0.266,0.172
3/22/2023 09:17:08.470,-0.945,0.262,0.168
3/22/2023 09:17:08.480,-0.953,0.266,0.156
3/22/2023 09:17:08.490,-0.949,0.27,0.141
3/22/2023 09:17:08.500,-0.953,0.281,0.133
3/22/2023 09:17:08.510,-0.945,0.301,0.137
3/22/2023 09:17:08.520,-0.941,0.32,0.137
3/22/2023 09:17:08.530,-0.938,0.328,0.145
3/22/2023 09:17:08.540,-0.938,0.324,0.145
3/22/2023 09:17:08.550,-0.934,0.313,0.152
3/22/2023 09:17:08.560,-0.934,0.301,0.152
3/22/2023 09:17:08.570,-0.93,0.301,0.156
3/22/2023 09:17:08.580,-0.93,0.297,0.156
3/22/2023 09:17:08.590,-0.93,0.293,0.156
3/22/2023 09:17:08.600,-0.938,0.289,0.164
3/22/2023 09:17:08.610,-0.941,0.285,0.16
3/22/2023 09:17:08.620,-0.941,0.285,0.164
3/22/2023 09:17:08.630,-0.945,0.293,0.16
3/22/2023 09:17:08.640,-0.953,0.301,0.16
3/22/2023 09:17:08.650,-0.953,0.293,0.156
3/22/2023 09:17:08.660,-0.949,0.293,0.148
3/22/2023 09:17:08.670,-0.945,0.301,0.145
3/22/2023 09:17:08.680,-0.941,0.301,0.148
3/22/2023 09:17:08.690,-0.941,0.301,0.137
3/22/2023 09:17:08.700,-0.945,0.301,0.125
3/22/2023 09:17:08.710,-0.945,0.305,0.121
3/22/2023 09:17:08.720,-0.941,0.301,0.129
3/22/2023 09:17:08.730,-0.941,0.289,0.141
3/22/2023 09:17:08.740,-0.941,0.293,0.141
3/22/2023 09:17:08.750,-0.945,0.297,0.141
3/22/2023 09:17:08.760,-0.941,0.301,0.125
3/22/2023 09:17:08.770,-0.938,0.305,0.113
3/22/2023 09:17:08.780,-0.938,0.301,0.102
3/22/2023 09:17:08.790,-0.926,0.297,0.105
3/22/2023 09:17:08.800,-0.922,0.293,0.105
3/22/2023 09:17:08.810,-0.914,0.289,0.109
3/22/2023 09:17:08.820,-0.914,0.281,0.113
3/22/2023 09:17:08.830,-0.926,0.277,0.121
3/22/2023 09:17:08.840,-0.93,0.273,0.133
3/22/2023 09:17:08.850,-0.938,0.277,0.137
3/22/2023 09:17:08.860,-0.941,0.273,0.141
3/22/2023 09:17:08.870,-0.941,0.273,0.148
3/22/2023 09:17:08.880,-0.945,0.273,0.156
3/22/2023 09:17:08.890,-0.949,0.277,0.156
3/22/2023 09:17:08.900,-0.949,0.277,0.16
3/22/2023 09:17:08.910,-0.949,0.273,0.16
3/22/2023 09:17:08.920,-0.945,0.27,0.152
3/22/2023 09:17:08.930,-0.938,0.273,0.148
3/22/2023 09:17:08.940,-0.93,0.281,0.145
3/22/2023 09:17:08.950,-0.934,0.277,0.148
3/22/2023 09:17:08.960,-0.934,0.27,0.152
3/22/2023 09:17:08.970,-0.934,0.266,0.156
3/22/2023 09:17:08.980,-0.938,0.27,0.156
3/22/2023 09:17:08.990,-0.945,0.273,0.152
3/22/2023 09:17:09.000,-0.961,0.289,0.145
3/22/2023 09:17:09.010,-0.953,0.281,0.152
3/22/2023 09:17:09.020,-0.953,0.273,0.156
3/22/2023 09:17:09.030,-0.953,0.273,0.156
3/22/2023 09:17:09.040,-0.949,0.273,0.152
3/22/2023 09:17:09.050,-0.945,0.273,0.148
3/22/2023 09:17:09.060,-0.945,0.273,0.152
3/22/2023 09:17:09.070,-0.941,0.277,0.148
3/22/2023 09:17:09.080,-0.938,0.281,0.152
3/22/2023 09:17:09.090,-0.938,0.285,0.152
3/22/2023 09:17:09.100,-0.938,0.285,0.152
3/22/2023 09:17:09.110,-0.938,0.289,0.152
3/22/2023 09:17:09.120,-0.934,0.297,0.148
3/22/2023 09:17:09.130,-0.941,0.293,0.145
3/22/2023 09:17:09.140,-0.938,0.293,0.145
3/22/2023 09:17:09.150,-0.941,0.293,0.145
3/22/2023 09:17:09.160,-0.941,0.293,0.141
3/22/2023 09:17:09.170,-0.941,0.289,0.141
3/22/2023 09:17:09.180,-0.941,0.285,0.141
3/22/2023 09:17:09.190,-0.945,0.285,0.141
3/22/2023 09:17:09.200,-0.945,0.293,0.141
3/22/2023 09:17:09.210,-0.949,0.293,0.141
3/22/2023 09:17:09.220,-0.949,0.293,0.133
3/22/2023 09:17:09.230,-0.953,0.293,0.137
3/22/2023 09:17:09.240,-0.953,0.301,0.141
3/22/2023 09:17:09.250,-0.957,0.305,0.145
3/22/2023 09:17:09.260,-0.961,0.305,0.145
3/22/2023 09:17:09.270,-0.961,0.297,0.145
3/22/2023 09:17:09.280,-0.957,0.293,0.152
3/22/2023 09:17:09.290,-0.953,0.301,0.148
3/22/2023 09:17:09.300,-0.949,0.301,0.145
3/22/2023 09:17:09.310,-0.945,0.297,0.148
3/22/2023 09:17:09.320,-0.938,0.293,0.145
3/22/2023 09:17:09.330,-0.938,0.293,0.148
3/22/2023 09:17:09.340,-0.941,0.293,0.145
3/22/2023 09:17:09.350,-0.941,0.293,0.148
3/22/2023 09:17:09.360,-0.938,0.297,0.152
3/22/2023 09:17:09.370,-0.934,0.289,0.152
3/22/2023 09:17:09.380,-0.938,0.281,0.152
3/22/2023 09:17:09.390,-0.934,0.273,0.152
3/22/2023 09:17:09.400,-0.938,0.273,0.152
3/22/2023 09:17:09.410,-0.938,0.273,0.156
3/22/2023 09:17:09.420,-0.949,0.273,0.148
3/22/2023 09:17:09.430,-0.945,0.273,0.148
3/22/2023 09:17:09.440,-0.945,0.273,0.145
3/22/2023 09:17:09.450,-0.949,0.277,0.148
3/22/2023 09:17:09.460,-0.949,0.273,0.152
3/22/2023 09:17:09.470,-0.957,0.27,0.152
3/22/2023 09:17:09.480,-0.953,0.27,0.152
3/22/2023 09:17:09.490,-0.945,0.273,0.148
3/22/2023 09:17:09.500,-0.949,0.273,0.148
3/22/2023 09:17:09.510,-0.938,0.27,0.148
3/22/2023 09:17:09.520,-0.934,0.266,0.137
3/22/2023 09:17:09.530,-0.934,0.27,0.137
3/22/2023 09:17:09.540,-0.926,0.27,0.137
3/22/2023 09:17:09.550,-0.926,0.273,0.141
3/22/2023 09:17:09.560,-0.934,0.27,0.141
3/22/2023 09:17:09.570,-0.938,0.27,0.141
3/22/2023 09:17:09.580,-0.938,0.273,0.145
3/22/2023 09:17:09.590,-0.941,0.27,0.141
3/22/2023 09:17:09.600,-0.938,0.273,0.141
3/22/2023 09:17:09.610,-0.938,0.277,0.137
3/22/2023 09:17:09.620,-0.926,0.273,0.141
3/22/2023 09:17:09.630,-0.926,0.27,0.137
3/22/2023 09:17:09.640,-0.926,0.27,0.137
3/22/2023 09:17:09.650,-0.926,0.273,0.141
3/22/2023 09:17:09.660,-0.934,0.281,0.141
3/22/2023 09:17:09.670,-0.934,0.281,0.141
3/22/2023 09:17:09.680,-0.938,0.281,0.145
3/22/2023 09:17:09.690,-0.941,0.277,0.148
3/22/2023 09:17:09.700,-0.941,0.277,0.145
3/22/2023 09:17:09.710,-0.941,0.277,0.145
3/22/2023 09:17:09.720,-0.941,0.277,0.141
3/22/2023 09:17:09.730,-0.941,0.285,0.141
3/22/2023 09:17:09.740,-0.941,0.281,0.141
3/22/2023 09:17:09.750,-0.945,0.281,0.145
3/22/2023 09:17:09.760,-0.945,0.281,0.145
3/22/2023 09:17:09.770,-0.945,0.281,0.148
3/22/2023 09:17:09.780,-0.945,0.281,0.152
3/22/2023 09:17:09.790,-0.945,0.281,0.156
3/22/2023 09:17:09.800,-0.945,0.281,0.156
3/22/2023 09:17:09.810,-0.941,0.285,0.156
3/22/2023 09:17:09.820,-0.945,0.285,0.156
3/22/2023 09:17:09.830,-0.945,0.281,0.16
3/22/2023 09:17:09.840,-0.945,0.281,0.164
3/22/2023 09:17:09.850,-0.941,0.281,0.164
3/22/2023 09:17:09.860,-0.941,0.277,0.164
3/22/2023 09:17:09.870,-0.941,0.273,0.168
3/22/2023 09:17:09.880,-0.941,0.27,0.164
3/22/2023 09:17:09.890,-0.941,0.273,0.168
3/22/2023 09:17:09.900,-0.941,0.273,0.168
3/22/2023 09:17:09.910,-0.941,0.27,0.172
3/22/2023 09:17:09.920,-0.941,0.27,0.172
3/22/2023 09:17:09.930,-0.934,0.277,0.172
3/22/2023 09:17:09.940,-0.934,0.277,0.172
3/22/2023 09:17:09.950,-0.938,0.273,0.172
3/22/2023 09:17:09.960,-0.934,0.273,0.172
3/22/2023 09:17:09.970,-0.934,0.27,0.172
3/22/2023 09:17:09.980,-0.938,0.27,0.168
3/22/2023 09:17:09.990,-0.941,0.27,0.168
3/22/2023 09:17:10.000,-0.949,0.27,0.168
3/22/2023 09:17:10.010,-0.945,0.266,0.172
3/22/2023 09:17:10.020,-0.941,0.27,0.168
3/22/2023 09:17:10.030,-0.945,0.27,0.164
3/22/2023 09:17:10.040,-0.941,0.277,0.164
3/22/2023 09:17:10.050,-0.941,0.277,0.16
3/22/2023 09:17:10.060,-0.941,0.273,0.16
3/22/2023 09:17:10.070,-0.941,0.273,0.156
3/22/2023 09:17:10.080,-0.941,0.273,0.156
3/22/2023 09:17:10.090,-0.945,0.27,0.16
3/22/2023 09:17:10.100,-0.945,0.27,0.164
3/22/2023 09:17:10.110,-0.945,0.273,0.16
3/22/2023 09:17:10.120,-0.949,0.273,0.16
3/22/2023 09:17:10.130,-0.949,0.273,0.16
3/22/2023 09:17:10.140,-0.945,0.273,0.156
3/22/2023 09:17:10.150,-0.941,0.273,0.152
3/22/2023 09:17:10.160,-0.941,0.27,0.148
3/22/2023 09:17:10.170,-0.941,0.266,0.148
3/22/2023 09:17:10.180,-0.938,0.27,0.145
3/22/2023 09:17:10.190,-0.938,0.27,0.148
3/22/2023 09:17:10.200,-0.938,0.27,0.145
3/22/2023 09:17:10.210,-0.934,0.273,0.145
3/22/2023 09:17:10.220,-0.934,0.273,0.148
3/22/2023 09:17:10.230,-0.938,0.273,0.148
3/22/2023 09:17:10.240,-0.941,0.27,0.148
3/22/2023 09:17:10.250,-0.938,0.27,0.148
3/22/2023 09:17:10.260,-0.941,0.266,0.145
3/22/2023 09:17:10.270,-0.945,0.266,0.145
3/22/2023 09:17:10.280,-0.957,0.27,0.145
3/22/2023 09:17:10.290,-0.949,0.27,0.145
3/22/2023 09:17:10.300,-0.945,0.273,0.145
3/22/2023 09:17:10.310,-0.941,0.273,0.148
3/22/2023 09:17:10.320,-0.938,0.273,0.148
3/22/2023 09:17:10.330,-0.938,0.27,0.148
3/22/2023 09:17:10.340,-0.938,0.277,0.152
3/22/2023 09:17:10.350,-0.941,0.273,0.16
3/22/2023 09:17:10.360,-0.941,0.27,0.164
3/22/2023 09:17:10.370,-0.93,0.262,0.168
3/22/2023 09:17:10.380,-0.93,0.254,0.168
3/22/2023 09:17:10.390,-0.938,0.254,0.152
3/22/2023 09:17:10.400,-0.938,0.262,0.152
3/22/2023 09:17:10.410,-0.941,0.27,0.145
3/22/2023 09:17:10.420,-0.941,0.281,0.148
3/22/2023 09:17:10.430,-0.938,0.281,0.148
3/22/2023 09:17:10.440,-0.941,0.27,0.16
3/22/2023 09:17:10.450,-0.941,0.266,0.168
3/22/2023 09:17:10.460,-0.941,0.266,0.168
3/22/2023 09:17:10.470,-0.941,0.266,0.172
3/22/2023 09:17:10.480,-0.953,0.262,0.172
3/22/2023 09:17:10.490,-0.949,0.262,0.172
3/22/2023 09:17:10.500,-0.965,0.262,0.172
3/22/2023 09:17:10.510,-0.953,0.266,0.176
3/22/2023 09:17:10.520,-0.957,0.266,0.172
3/22/2023 09:17:10.530,-0.953,0.266,0.172
3/22/2023 09:17:10.540,-0.945,0.266,0.172
3/22/2023 09:17:10.550,-0.941,0.266,0.172
3/22/2023 09:17:10.560,-0.938,0.262,0.172
3/22/2023 09:17:10.570,-0.941,0.258,0.172
3/22/2023 09:17:10.580,-0.93,0.262,0.168
3/22/2023 09:17:10.590,-0.934,0.266,0.168
3/22/2023 09:17:10.600,-0.934,0.266,0.168
3/22/2023 09:17:10.610,-0.93,0.266,0.16
3/22/2023 09:17:10.620,-0.938,0.27,0.156
3/22/2023 09:17:10.630,-0.938,0.27,0.156
3/22/2023 09:17:10.640,-0.941,0.27,0.156
3/22/2023 09:17:10.650,-0.941,0.27,0.164
3/22/2023 09:17:10.660,-0.941,0.27,0.16
3/22/2023 09:17:10.670,-0.945,0.27,0.156
3/22/2023 09:17:10.680,-0.941,0.27,0.164
3/22/2023 09:17:10.690,-0.941,0.27,0.164
3/22/2023 09:17:10.700,-0.941,0.27,0.168
3/22/2023 09:17:10.710,-0.941,0.273,0.164
3/22/2023 09:17:10.720,-0.941,0.27,0.164
3/22/2023 09:17:10.730,-0.934,0.273,0.16
3/22/2023 09:17:10.740,-0.938,0.273,0.156
3/22/2023 09:17:10.750,-0.941,0.277,0.152
3/22/2023 09:17:10.760,-0.941,0.285,0.152
3/22/2023 09:17:10.770,-0.945,0.285,0.152
3/22/2023 09:17:10.780,-0.945,0.289,0.156
3/22/2023 09:17:10.790,-0.945,0.289,0.156
3/22/2023 09:17:10.800,-0.945,0.285,0.156
3/22/2023 09:17:10.810,-0.941,0.281,0.16
3/22/2023 09:17:10.820,-0.941,0.285,0.164
3/22/2023 09:17:10.830,-0.945,0.285,0.16
3/22/2023 09:17:10.840,-0.941,0.289,0.164
3/22/2023 09:17:10.850,-0.941,0.289,0.164
3/22/2023 09:17:10.860,-0.941,0.285,0.16
3/22/2023 09:17:10.870,-0.941,0.285,0.16
3/22/2023 09:17:10.880,-0.941,0.285,0.16
3/22/2023 09:17:10.890,-0.941,0.289,0.164
3/22/2023 09:17:10.900,-0.941,0.285,0.16
3/22/2023 09:17:10.910,-0.941,0.281,0.16
3/22/2023 09:17:10.920,-0.941,0.277,0.164
3/22/2023 09:17:10.930,-0.938,0.281,0.168
3/22/2023 09:17:10.940,-0.934,0.285,0.16
3/22/2023 09:17:10.950,-0.934,0.285,0.168
3/22/2023 09:17:10.960,-0.934,0.281,0.168
3/22/2023 09:17:10.970,-0.938,0.277,0.172
3/22/2023 09:17:10.980,-0.938,0.273,0.172
3/22/2023 09:17:10.990,-0.941,0.277,0.172
3/22/2023 09:17:11.000,-0.949,0.277,0.172
3/22/2023 09:17:11.010,-0.945,0.273,0.176
3/22/2023 09:17:11.020,-0.941,0.273,0.172
3/22/2023 09:17:11.030,-0.941,0.273,0.172
3/22/2023 09:17:11.040,-0.941,0.273,0.172
3/22/2023 09:17:11.050,-0.941,0.27,0.172
3/22/2023 09:17:11.060,-0.941,0.27,0.172
3/22/2023 09:17:11.070,-0.938,0.266,0.172
3/22/2023 09:17:11.080,-0.941,0.27,0.172
3/22/2023 09:17:11.090,-0.941,0.27,0.172
3/22/2023 09:17:11.100,-0.941,0.27,0.18
3/22/2023 09:17:11.110,-0.941,0.27,0.18
3/22/2023 09:17:11.120,-0.949,0.266,0.18
3/22/2023 09:17:11.130,-0.949,0.27,0.176
3/22/2023 09:17:11.140,-0.945,0.27,0.176
3/22/2023 09:17:11.150,-0.949,0.262,0.176
3/22/2023 09:17:11.160,-0.949,0.266,0.176
3/22/2023 09:17:11.170,-0.949,0.266,0.176
3/22/2023 09:17:11.180,-0.941,0.27,0.176
3/22/2023 09:17:11.190,-0.938,0.266,0.176
3/22/2023 09:17:11.200,-0.934,0.266,0.176
3/22/2023 09:17:11.210,-0.93,0.266,0.176
3/22/2023 09:17:11.220,-0.934,0.27,0.176
3/22/2023 09:17:11.230,-0.926,0.27,0.176
3/22/2023 09:17:11.240,-0.926,0.266,0.172
3/22/2023 09:17:11.250,-0.93,0.266,0.172
3/22/2023 09:17:11.260,-0.934,0.266,0.172
3/22/2023 09:17:11.270,-0.941,0.262,0.168
3/22/2023 09:17:11.280,-0.941,0.27,0.168
3/22/2023 09:17:11.290,-0.941,0.27,0.168
3/22/2023 09:17:11.300,-0.941,0.273,0.164
3/22/2023 09:17:11.310,-0.941,0.273,0.168
3/22/2023 09:17:11.320,-0.938,0.273,0.172
3/22/2023 09:17:11.330,-0.941,0.277,0.168
3/22/2023 09:17:11.340,-0.941,0.277,0.164
3/22/2023 09:17:11.350,-0.949,0.281,0.16
3/22/2023 09:17:11.360,-0.953,0.277,0.16
3/22/2023 09:17:11.370,-0.945,0.281,0.156
3/22/2023 09:17:11.380,-0.945,0.277,0.16
3/22/2023 09:17:11.390,-0.945,0.281,0.16
3/22/2023 09:17:11.400,-0.945,0.285,0.16
3/22/2023 09:17:11.410,-0.938,0.281,0.164
3/22/2023 09:17:11.420,-0.934,0.273,0.168
3/22/2023 09:17:11.430,-0.934,0.273,0.168
3/22/2023 09:17:11.440,-0.934,0.277,0.164
3/22/2023 09:17:11.450,-0.934,0.277,0.168
3/22/2023 09:17:11.460,-0.934,0.273,0.168
3/22/2023 09:17:11.470,-0.938,0.273,0.168
3/22/2023 09:17:11.480,-0.934,0.273,0.168
3/22/2023 09:17:11.490,-0.934,0.273,0.172
3/22/2023 09:17:11.500,-0.941,0.277,0.164
3/22/2023 09:17:11.510,-0.941,0.273,0.168
3/22/2023 09:17:11.520,-0.941,0.273,0.172
3/22/2023 09:17:11.530,-0.941,0.27,0.172
3/22/2023 09:17:11.540,-0.941,0.27,0.172
3/22/2023 09:17:11.550,-0.941,0.27,0.172
3/22/2023 09:17:11.560,-0.938,0.277,0.172
3/22/2023 09:17:11.570,-0.934,0.281,0.172
3/22/2023 09:17:11.580,-0.938,0.285,0.172
3/22/2023 09:17:11.590,-0.934,0.277,0.168
3/22/2023 09:17:11.600,-0.934,0.281,0.172
3/22/2023 09:17:11.610,-0.93,0.277,0.172
3/22/2023 09:17:11.620,-0.93,0.273,0.176
3/22/2023 09:17:11.630,-0.934,0.277,0.176
3/22/2023 09:17:11.640,-0.938,0.277,0.172
3/22/2023 09:17:11.650,-0.938,0.273,0.172
3/22/2023 09:17:11.660,-0.938,0.273,0.168
3/22/2023 09:17:11.670,-0.941,0.277,0.18
3/22/2023 09:17:11.680,-0.941,0.277,0.188
3/22/2023 09:17:11.690,-0.941,0.27,0.188
3/22/2023 09:17:11.700,-0.941,0.27,0.18
3/22/2023 09:17:11.710,-0.941,0.27,0.176
3/22/2023 09:17:11.720,-0.934,0.27,0.176
3/22/2023 09:17:11.730,-0.938,0.273,0.184
3/22/2023 09:17:11.740,-0.938,0.27,0.184
3/22/2023 09:17:11.750,-0.941,0.273,0.176
3/22/2023 09:17:11.760,-0.938,0.277,0.168
3/22/2023 09:17:11.770,-0.934,0.277,0.168
3/22/2023 09:17:11.780,-0.941,0.277,0.164
3/22/2023 09:17:11.790,-0.941,0.277,0.16
3/22/2023 09:17:11.800,-0.941,0.277,0.16
3/22/2023 09:17:11.810,-0.941,0.273,0.168
3/22/2023 09:17:11.820,-0.941,0.27,0.172
3/22/2023 09:17:11.830,-0.941,0.27,0.172
3/22/2023 09:17:11.840,-0.941,0.27,0.172
3/22/2023 09:17:11.850,-0.938,0.266,0.172
3/22/2023 09:17:11.860,-0.938,0.266,0.172
3/22/2023 09:17:11.870,-0.938,0.27,0.168
3/22/2023 09:17:11.880,-0.934,0.277,0.164
3/22/2023 09:17:11.890,-0.938,0.277,0.164
3/22/2023 09:17:11.900,-0.941,0.285,0.16
3/22/2023 09:17:11.910,-0.941,0.289,0.16
3/22/2023 09:17:11.920,-0.941,0.285,0.16
3/22/2023 09:17:11.930,-0.941,0.277,0.168
3/22/2023 09:17:11.940,-0.941,0.273,0.168
3/22/2023 09:17:11.950,-0.938,0.273,0.168
3/22/2023 09:17:11.960,-0.941,0.273,0.164
3/22/2023 09:17:11.970,-0.941,0.273,0.16
3/22/2023 09:17:11.980,-0.941,0.273,0.156
3/22/2023 09:17:11.990,-0.941,0.27,0.164
3/22/2023 09:17:12.000,-0.953,0.273,0.172
3/22/2023 09:17:12.010,-0.945,0.27,0.176
3/22/2023 09:17:12.020,-0.945,0.273,0.176
3/22/2023 09:17:12.030,-0.945,0.285,0.172
3/22/2023 09:17:12.040,-0.941,0.281,0.164
3/22/2023 09:17:12.050,-0.941,0.281,0.164
3/22/2023 09:17:12.060,-0.934,0.281,0.164
3/22/2023 09:17:12.070,-0.934,0.277,0.168
3/22/2023 09:17:12.080,-0.934,0.273,0.172
3/22/2023 09:17:12.090,-0.941,0.27,0.172
3/22/2023 09:17:12.100,-0.941,0.273,0.172
3/22/2023 09:17:12.110,-0.941,0.277,0.176
3/22/2023 09:17:12.120,-0.941,0.281,0.172
3/22/2023 09:17:12.130,-0.941,0.281,0.172
3/22/2023 09:17:12.140,-0.941,0.277,0.172
3/22/2023 09:17:12.150,-0.941,0.281,0.172
3/22/2023 09:17:12.160,-0.941,0.285,0.172
3/22/2023 09:17:12.170,-0.945,0.281,0.172
3/22/2023 09:17:12.180,-0.941,0.277,0.168
3/22/2023 09:17:12.190,-0.941,0.273,0.172
3/22/2023 09:17:12.200,-0.941,0.27,0.164
3/22/2023 09:17:12.210,-0.938,0.273,0.164
3/22/2023 09:17:12.220,-0.941,0.27,0.168
3/22/2023 09:17:12.230,-0.941,0.27,0.168
3/22/2023 09:17:12.240,-0.941,0.27,0.168
3/22/2023 09:17:12.250,-0.941,0.277,0.164
3/22/2023 09:17:12.260,-0.941,0.277,0.164
3/22/2023 09:17:12.270,-0.945,0.273,0.164
3/22/2023 09:17:12.280,-0.941,0.27,0.168
3/22/2023 09:17:12.290,-0.945,0.27,0.168
3/22/2023 09:17:12.300,-0.941,0.27,0.172
3/22/2023 09:17:12.310,-0.941,0.27,0.164
3/22/2023 09:17:12.320,-0.941,0.27,0.164
3/22/2023 09:17:12.330,-0.938,0.27,0.168
3/22/2023 09:17:12.340,-0.941,0.27,0.168
3/22/2023 09:17:12.350,-0.941,0.273,0.164
3/22/2023 09:17:12.360,-0.941,0.27,0.168
3/22/2023 09:17:12.370,-0.941,0.27,0.168
3/22/2023 09:17:12.380,-0.934,0.266,0.168
3/22/2023 09:17:12.390,-0.941,0.262,0.164
3/22/2023 09:17:12.400,-0.941,0.266,0.16
3/22/2023 09:17:12.410,-0.949,0.27,0.156
3/22/2023 09:17:12.420,-0.949,0.266,0.152
3/22/2023 09:17:12.430,-0.945,0.266,0.156
3/22/2023 09:17:12.440,-0.945,0.258,0.152
3/22/2023 09:17:12.450,-0.945,0.258,0.148
3/22/2023 09:17:12.460,-0.945,0.262,0.156
3/22/2023 09:17:12.470,-0.953,0.266,0.164
3/22/2023 09:17:12.480,-0.957,0.27,0.172
3/22/2023 09:17:12.490,-0.957,0.277,0.172
3/22/2023 09:17:12.500,-0.961,0.289,0.168
3/22/2023 09:17:12.510,-0.949,0.285,0.168
3/22/2023 09:17:12.520,-0.945,0.285,0.164
3/22/2023 09:17:12.530,-0.941,0.281,0.164
3/22/2023 09:17:12.540,-0.934,0.273,0.168
3/22/2023 09:17:12.550,-0.93,0.273,0.172
3/22/2023 09:17:12.560,-0.926,0.27,0.176
3/22/2023 09:17:12.570,-0.926,0.27,0.172
3/22/2023 09:17:12.580,-0.926,0.266,0.172
3/22/2023 09:17:12.590,-0.926,0.266,0.172
3/22/2023 09:17:12.600,-0.926,0.27,0.168
3/22/2023 09:17:12.610,-0.914,0.262,0.117
3/22/2023 09:17:12.620,-0.93,0.281,0.117
3/22/2023 09:17:12.630,-0.957,0.266,0.191
3/22/2023 09:17:12.640,-0.961,0.23,0.223
3/22/2023 09:17:12.650,-0.969,0.258,0.191
3/22/2023 09:17:12.660,-0.957,0.305,0.137
3/22/2023 09:17:12.670,-0.949,0.289,0.145
3/22/2023 09:17:12.680,-0.941,0.238,0.184
3/22/2023 09:17:12.690,-0.941,0.223,0.195
3/22/2023 09:17:12.700,-0.945,0.254,0.188
3/22/2023 09:17:12.710,-0.941,0.285,0.172
3/22/2023 09:17:12.720,-0.941,0.285,0.176
3/22/2023 09:17:12.730,-0.938,0.277,0.172
3/22/2023 09:17:12.740,-0.938,0.273,0.176
3/22/2023 09:17:12.750,-0.938,0.273,0.176
3/22/2023 09:17:12.760,-0.934,0.27,0.18
3/22/2023 09:17:12.770,-0.938,0.258,0.184
3/22/2023 09:17:12.780,-0.938,0.258,0.18
3/22/2023 09:17:12.790,-0.941,0.258,0.176
3/22/2023 09:17:12.800,-0.938,0.27,0.18
3/22/2023 09:17:12.810,-0.934,0.27,0.18
3/22/2023 09:17:12.820,-0.938,0.27,0.172
3/22/2023 09:17:12.830,-0.941,0.266,0.16
3/22/2023 09:17:12.840,-0.938,0.262,0.156
3/22/2023 09:17:12.850,-0.941,0.258,0.16
3/22/2023 09:17:12.860,-0.945,0.258,0.16
3/22/2023 09:17:12.870,-0.945,0.266,0.156
3/22/2023 09:17:12.880,-0.945,0.266,0.16
3/22/2023 09:17:12.890,-0.945,0.27,0.16
3/22/2023 09:17:12.900,-0.934,0.27,0.164
3/22/2023 09:17:12.910,-0.93,0.266,0.168
3/22/2023 09:17:12.920,-0.934,0.266,0.172
3/22/2023 09:17:12.930,-0.938,0.266,0.172
3/22/2023 09:17:12.940,-0.938,0.266,0.172
3/22/2023 09:17:12.950,-0.93,0.266,0.168
3/22/2023 09:17:12.960,-0.934,0.266,0.16
3/22/2023 09:17:12.970,-0.938,0.266,0.156
3/22/2023 09:17:12.980,-0.941,0.258,0.152
3/22/2023 09:17:12.990,-0.941,0.262,0.152
3/22/2023 09:17:13.000,-0.957,0.258,0.152
3/22/2023 09:17:13.010,-0.953,0.25,0.152
3/22/2023 09:17:13.020,-0.957,0.258,0.156
3/22/2023 09:17:13.030,-0.953,0.266,0.16
3/22/2023 09:17:13.040,-0.949,0.273,0.156
3/22/2023 09:17:13.050,-0.945,0.277,0.156
3/22/2023 09:17:13.060,-0.945,0.277,0.16
3/22/2023 09:17:13.070,-0.945,0.273,0.168
3/22/2023 09:17:13.080,-0.941,0.277,0.176
3/22/2023 09:17:13.090,-0.941,0.277,0.18
3/22/2023 09:17:13.100,-0.941,0.273,0.18
3/22/2023 09:17:13.110,-0.941,0.266,0.176
3/22/2023 09:17:13.120,-0.941,0.254,0.172
3/22/2023 09:17:13.130,-0.941,0.254,0.172
3/22/2023 09:17:13.140,-0.941,0.254,0.176
3/22/2023 09:17:13.150,-0.941,0.266,0.18
3/22/2023 09:17:13.160,-0.941,0.27,0.18
3/22/2023 09:17:13.170,-0.945,0.266,0.191
3/22/2023 09:17:13.180,-0.945,0.262,0.188
3/22/2023 09:17:13.190,-0.941,0.254,0.188
3/22/2023 09:17:13.200,-0.941,0.25,0.18
3/22/2023 09:17:13.210,-0.941,0.25,0.184
3/22/2023 09:17:13.220,-0.941,0.258,0.195
3/22/2023 09:17:13.230,-0.938,0.262,0.207
3/22/2023 09:17:13.240,-0.938,0.266,0.203
3/22/2023 09:17:13.250,-0.938,0.266,0.199
3/22/2023 09:17:13.260,-0.941,0.262,0.199
3/22/2023 09:17:13.270,-0.938,0.266,0.191
3/22/2023 09:17:13.280,-0.938,0.266,0.188
3/22/2023 09:17:13.290,-0.941,0.266,0.184
3/22/2023 09:17:13.300,-0.945,0.27,0.168
3/22/2023 09:17:13.310,-0.949,0.277,0.16
3/22/2023 09:17:13.320,-0.949,0.273,0.164
3/22/2023 09:17:13.330,-0.953,0.262,0.176
3/22/2023 09:17:13.340,-0.949,0.254,0.18
3/22/2023 09:17:13.350,-0.953,0.25,0.188
3/22/2023 09:17:13.360,-0.941,0.258,0.184
3/22/2023 09:17:13.370,-0.941,0.254,0.188
3/22/2023 09:17:13.380,-0.941,0.242,0.184
3/22/2023 09:17:13.390,-0.941,0.246,0.184
3/22/2023 09:17:13.400,-0.945,0.25,0.188
3/22/2023 09:17:13.410,-0.941,0.25,0.191
3/22/2023 09:17:13.420,-0.941,0.254,0.184
3/22/2023 09:17:13.430,-0.941,0.254,0.18
3/22/2023 09:17:13.440,-0.941,0.254,0.188
3/22/2023 09:17:13.450,-0.941,0.246,0.195
3/22/2023 09:17:13.460,-0.941,0.242,0.203
3/22/2023 09:17:13.470,-0.941,0.246,0.203
3/22/2023 09:17:13.480,-0.941,0.246,0.203
3/22/2023 09:17:13.490,-0.941,0.258,0.195
3/22/2023 09:17:13.500,-0.953,0.266,0.195
3/22/2023 09:17:13.510,-0.945,0.262,0.203
3/22/2023 09:17:13.520,-0.945,0.266,0.191
3/22/2023 09:17:13.530,-0.945,0.27,0.188
3/22/2023 09:17:13.540,-0.945,0.266,0.191
3/22/2023 09:17:13.550,-0.941,0.266,0.195
3/22/2023 09:17:13.560,-0.941,0.262,0.195
3/22/2023 09:17:13.570,-0.941,0.262,0.199
3/22/2023 09:17:13.580,-0.938,0.262,0.199
3/22/2023 09:17:13.590,-0.934,0.266,0.195
3/22/2023 09:17:13.600,-0.938,0.266,0.195
3/22/2023 09:17:13.610,-0.941,0.266,0.191
3/22/2023 09:17:13.620,-0.941,0.27,0.191
3/22/2023 09:17:13.630,-0.941,0.27,0.195
3/22/2023 09:17:13.640,-0.945,0.266,0.195
3/22/2023 09:17:13.650,-0.945,0.266,0.195
3/22/2023 09:17:13.660,-0.938,0.266,0.195
3/22/2023 09:17:13.670,-0.938,0.262,0.195
3/22/2023 09:17:13.680,-0.938,0.258,0.199
3/22/2023 09:17:13.690,-0.934,0.258,0.195
3/22/2023 09:17:13.700,-0.938,0.25,0.184
3/22/2023 09:17:13.710,-0.938,0.25,0.18
3/22/2023 09:17:13.720,-0.934,0.246,0.176
3/22/2023 09:17:13.730,-0.934,0.242,0.176
3/22/2023 09:17:13.740,-0.938,0.246,0.172
3/22/2023 09:17:13.750,-0.941,0.254,0.176
3/22/2023 09:17:13.760,-0.941,0.254,0.176
3/22/2023 09:17:13.770,-0.945,0.258,0.184
3/22/2023 09:17:13.780,-0.945,0.262,0.191
3/22/2023 09:17:13.790,-0.93,0.266,0.18
3/22/2023 09:17:13.800,-0.922,0.27,0.125
3/22/2023 09:17:13.810,-0.941,0.301,0.156
3/22/2023 09:17:13.820,-0.961,0.293,0.168
3/22/2023 09:17:13.830,-0.961,0.273,0.191
3/22/2023 09:17:13.840,-0.949,0.266,0.203
3/22/2023 09:17:13.850,-0.926,0.266,0.199
3/22/2023 09:17:13.860,-0.926,0.258,0.184
3/22/2023 09:17:13.870,-0.926,0.254,0.176
3/22/2023 09:17:13.880,-0.926,0.254,0.176
3/22/2023 09:17:13.890,-0.926,0.262,0.176
3/22/2023 09:17:13.900,-0.938,0.266,0.172
3/22/2023 09:17:13.910,-0.938,0.273,0.172
3/22/2023 09:17:13.920,-0.941,0.277,0.168
3/22/2023 09:17:13.930,-0.941,0.281,0.156
3/22/2023 09:17:13.940,-0.934,0.285,0.156
3/22/2023 09:17:13.950,-0.93,0.289,0.152
3/22/2023 09:17:13.960,-0.938,0.277,0.148
3/22/2023 09:17:13.970,-0.941,0.273,0.145
3/22/2023 09:17:13.980,-0.949,0.27,0.152
3/22/2023 09:17:13.990,-0.949,0.266,0.156
3/22/2023 09:17:14.000,-0.953,0.266,0.145
3/22/2023 09:17:14.010,-0.945,0.27,0.145
3/22/2023 09:17:14.020,-0.945,0.258,0.156
3/22/2023 09:17:14.030,-0.945,0.254,0.164
3/22/2023 09:17:14.040,-0.945,0.262,0.156
3/22/2023 09:17:14.050,-0.941,0.277,0.156
3/22/2023 09:17:14.060,-0.938,0.281,0.168
3/22/2023 09:17:14.070,-0.93,0.281,0.172
3/22/2023 09:17:14.080,-0.938,0.297,0.16
3/22/2023 09:17:14.090,-0.941,0.305,0.148
3/22/2023 09:17:14.100,-0.941,0.305,0.148
3/22/2023 09:17:14.110,-0.934,0.285,0.141
3/22/2023 09:17:14.120,-0.926,0.27,0.16
3/22/2023 09:17:14.130,-0.922,0.242,0.172
3/22/2023 09:17:14.140,-0.93,0.227,0.172
3/22/2023 09:17:14.150,-0.938,0.23,0.195
3/22/2023 09:17:14.160,-0.941,0.234,0.254
3/22/2023 09:17:14.170,-0.914,0.211,0.242
3/22/2023 09:17:14.180,-0.941,0.207,0.207
3/22/2023 09:17:14.190,-0.961,0.227,0.184
3/22/2023 09:17:14.200,-0.949,0.254,0.172
3/22/2023 09:17:14.210,-0.926,0.266,0.164
3/22/2023 09:17:14.220,-0.91,0.281,0.152
3/22/2023 09:17:14.230,-0.926,0.273,0.145
3/22/2023 09:17:14.240,-0.953,0.281,0.152
3/22/2023 09:17:14.250,-0.961,0.297,0.152
3/22/2023 09:17:14.260,-0.949,0.309,0.164
3/22/2023 09:17:14.270,-0.945,0.301,0.176
3/22/2023 09:17:14.280,-0.945,0.297,0.168
3/22/2023 09:17:14.290,-0.953,0.301,0.16
3/22/2023 09:17:14.300,-0.953,0.313,0.16
3/22/2023 09:17:14.310,-0.949,0.305,0.172
3/22/2023 09:17:14.320,-0.941,0.273,0.195
3/22/2023 09:17:14.330,-0.945,0.23,0.211
3/22/2023 09:17:14.340,-0.938,0.203,0.234
3/22/2023 09:17:14.350,-0.93,0.207,0.242
3/22/2023 09:17:14.360,-0.934,0.238,0.234
3/22/2023 09:17:14.370,-0.938,0.254,0.219
3/22/2023 09:17:14.380,-0.938,0.262,0.207
3/22/2023 09:17:14.390,-0.941,0.262,0.184
3/22/2023 09:17:14.400,-0.953,0.27,0.168
3/22/2023 09:17:14.410,-0.957,0.273,0.156
3/22/2023 09:17:14.420,-0.965,0.281,0.152
3/22/2023 09:17:14.430,-0.957,0.293,0.152
3/22/2023 09:17:14.440,-0.949,0.293,0.168
3/22/2023 09:17:14.450,-0.941,0.27,0.184
3/22/2023 09:17:14.460,-0.938,0.246,0.195
3/22/2023 09:17:14.470,-0.934,0.234,0.195
3/22/2023 09:17:14.480,-0.926,0.234,0.199
3/22/2023 09:17:14.490,-0.926,0.246,0.191
3/22/2023 09:17:14.500,-0.941,0.254,0.176
3/22/2023 09:17:14.510,-0.941,0.27,0.16
3/22/2023 09:17:14.520,-0.941,0.281,0.156
3/22/2023 09:17:14.530,-0.941,0.285,0.164
3/22/2023 09:17:14.540,-0.945,0.273,0.168
3/22/2023 09:17:14.550,-0.957,0.262,0.172
3/22/2023 09:17:14.560,-0.949,0.262,0.172
3/22/2023 09:17:14.570,-0.945,0.27,0.18
3/22/2023 09:17:14.580,-0.941,0.27,0.176
3/22/2023 09:17:14.590,-0.941,0.281,0.172
3/22/2023 09:17:14.600,-0.938,0.293,0.176
3/22/2023 09:17:14.610,-0.926,0.285,0.172
3/22/2023 09:17:14.620,-0.926,0.281,0.176
3/22/2023 09:17:14.630,-0.93,0.273,0.184
3/22/2023 09:17:14.640,-0.938,0.266,0.176
3/22/2023 09:17:14.650,-0.941,0.266,0.176
3/22/2023 09:17:14.660,-0.941,0.266,0.168
3/22/2023 09:17:14.670,-0.941,0.27,0.168
3/22/2023 09:17:14.680,-0.941,0.273,0.16
3/22/2023 09:17:14.690,-0.941,0.285,0.156
3/22/2023 09:17:14.700,-0.941,0.285,0.156
3/22/2023 09:17:14.710,-0.941,0.281,0.164
3/22/2023 09:17:14.720,-0.941,0.277,0.172
3/22/2023 09:17:14.730,-0.941,0.277,0.176
3/22/2023 09:17:14.740,-0.941,0.277,0.188
3/22/2023 09:17:14.750,-0.938,0.273,0.199
3/22/2023 09:17:14.760,-0.934,0.27,0.199
3/22/2023 09:17:14.770,-0.926,0.273,0.191
3/22/2023 09:17:14.780,-0.93,0.289,0.18
3/22/2023 09:17:14.790,-0.938,0.297,0.168
3/22/2023 09:17:14.800,-0.945,0.285,0.16
3/22/2023 09:17:14.810,-0.945,0.277,0.16
3/22/2023 09:17:14.820,-0.945,0.273,0.156
3/22/2023 09:17:14.830,-0.941,0.277,0.156
3/22/2023 09:17:14.840,-0.941,0.277,0.156
3/22/2023 09:17:14.850,-0.941,0.273,0.164
3/22/2023 09:17:14.860,-0.941,0.27,0.172
3/22/2023 09:17:14.870,-0.941,0.273,0.184
3/22/2023 09:17:14.880,-0.938,0.273,0.188
3/22/2023 09:17:14.890,-0.934,0.273,0.191
3/22/2023 09:17:14.900,-0.934,0.273,0.191
3/22/2023 09:17:14.910,-0.938,0.266,0.191
3/22/2023 09:17:14.920,-0.941,0.258,0.199
3/22/2023 09:17:14.930,-0.945,0.262,0.207
3/22/2023 09:17:14.940,-0.941,0.281,0.203
3/22/2023 09:17:14.950,-0.941,0.285,0.195
3/22/2023 09:17:14.960,-0.938,0.277,0.184
3/22/2023 09:17:14.970,-0.938,0.273,0.176
3/22/2023 09:17:14.980,-0.941,0.27,0.172
3/22/2023 09:17:14.990,-0.941,0.27,0.176
3/22/2023 09:17:15.000,-0.949,0.273,0.18
3/22/2023 09:17:15.010,-0.941,0.281,0.176
3/22/2023 09:17:15.020,-0.941,0.293,0.16
3/22/2023 09:17:15.030,-0.945,0.277,0.148
3/22/2023 09:17:15.040,-0.953,0.254,0.145
3/22/2023 09:17:15.050,-0.953,0.242,0.141
3/22/2023 09:17:15.060,-0.957,0.242,0.148
3/22/2023 09:17:15.070,-0.953,0.254,0.16
3/22/2023 09:17:15.080,-0.945,0.254,0.176
3/22/2023 09:17:15.090,-0.938,0.254,0.191
3/22/2023 09:17:15.100,-0.941,0.25,0.195
3/22/2023 09:17:15.110,-0.93,0.266,0.188
3/22/2023 09:17:15.120,-0.922,0.277,0.18
3/22/2023 09:17:15.130,-0.93,0.273,0.172
3/22/2023 09:17:15.140,-0.922,0.266,0.172
3/22/2023 09:17:15.150,-0.934,0.25,0.164
3/22/2023 09:17:15.160,-0.938,0.242,0.168
3/22/2023 09:17:15.170,-0.938,0.242,0.164
3/22/2023 09:17:15.180,-0.938,0.246,0.152
3/22/2023 09:17:15.190,-0.941,0.258,0.148
3/22/2023 09:17:15.200,-0.938,0.258,0.16
3/22/2023 09:17:15.210,-0.938,0.258,0.164
3/22/2023 09:17:15.220,-0.941,0.254,0.168
3/22/2023 09:17:15.230,-0.941,0.258,0.168
3/22/2023 09:17:15.240,-0.941,0.262,0.168
3/22/2023 09:17:15.250,-0.941,0.266,0.168
3/22/2023 09:17:15.260,-0.941,0.266,0.172
3/22/2023 09:17:15.270,-0.941,0.27,0.168
3/22/2023 09:17:15.280,-0.941,0.27,0.164
3/22/2023 09:17:15.290,-0.941,0.273,0.168
3/22/2023 09:17:15.300,-0.938,0.273,0.184
3/22/2023 09:17:15.310,-0.938,0.27,0.191
3/22/2023 09:17:15.320,-0.949,0.273,0.18
3/22/2023 09:17:15.330,-0.945,0.281,0.16
3/22/2023 09:17:15.340,-0.949,0.277,0.148
3/22/2023 09:17:15.350,-0.953,0.277,0.137
3/22/2023 09:17:15.360,-0.961,0.273,0.145
3/22/2023 09:17:15.370,-0.957,0.277,0.164
3/22/2023 09:17:15.380,-0.949,0.285,0.164
3/22/2023 09:17:15.390,-0.953,0.285,0.164
3/22/2023 09:17:15.400,-0.945,0.277,0.16
3/22/2023 09:17:15.410,-0.941,0.281,0.168
3/22/2023 09:17:15.420,-0.926,0.289,0.188
3/22/2023 09:17:15.430,-0.926,0.289,0.195
3/22/2023 09:17:15.440,-0.922,0.281,0.191
3/22/2023 09:17:15.450,-0.93,0.27,0.18
3/22/2023 09:17:15.460,-0.93,0.266,0.176
3/22/2023 09:17:15.470,-0.93,0.258,0.172
3/22/2023 09:17:15.480,-0.93,0.27,0.172
3/22/2023 09:17:15.490,-0.93,0.273,0.168
3/22/2023 09:17:15.500,-0.953,0.27,0.164
3/22/2023 09:17:15.510,-0.957,0.262,0.176
3/22/2023 09:17:15.520,-0.969,0.266,0.176
3/22/2023 09:17:15.530,-0.992,0.293,0.176
3/22/2023 09:17:15.540,-0.98,0.316,0.191
3/22/2023 09:17:15.550,-0.938,0.316,0.219
3/22/2023 09:17:15.560,-0.918,0.281,0.219
3/22/2023 09:17:15.570,-0.926,0.25,0.207
3/22/2023 09:17:15.580,-0.914,0.238,0.203
3/22/2023 09:17:15.590,-0.914,0.234,0.199
3/22/2023 09:17:15.600,-0.914,0.234,0.203
3/22/2023 09:17:15.610,-0.93,0.238,0.199
3/22/2023 09:17:15.620,-0.938,0.262,0.199
3/22/2023 09:17:15.630,-0.938,0.262,0.207
3/22/2023 09:17:15.640,-0.934,0.246,0.207
3/22/2023 09:17:15.650,-0.938,0.246,0.191
3/22/2023 09:17:15.660,-0.93,0.25,0.184
3/22/2023 09:17:15.670,-0.93,0.25,0.172
3/22/2023 09:17:15.680,-0.934,0.258,0.168
3/22/2023 09:17:15.690,-0.938,0.258,0.164
3/22/2023 09:17:15.700,-0.941,0.266,0.168
3/22/2023 09:17:15.710,-0.941,0.273,0.172
3/22/2023 09:17:15.720,-0.941,0.273,0.176
3/22/2023 09:17:15.730,-0.938,0.27,0.176
3/22/2023 09:17:15.740,-0.938,0.258,0.18
3/22/2023 09:17:15.750,-0.941,0.254,0.172
3/22/2023 09:17:15.760,-0.949,0.254,0.172
3/22/2023 09:17:15.770,-0.957,0.254,0.176
3/22/2023 09:17:15.780,-0.953,0.25,0.188
3/22/2023 09:17:15.790,-0.945,0.254,0.199
3/22/2023 09:17:15.800,-0.941,0.25,0.203
3/22/2023 09:17:15.810,-0.941,0.246,0.211
3/22/2023 09:17:15.820,-0.941,0.25,0.211
3/22/2023 09:17:15.830,-0.941,0.254,0.215
3/22/2023 09:17:15.840,-0.941,0.254,0.203
3/22/2023 09:17:15.850,-0.945,0.27,0.199
3/22/2023 09:17:15.860,-0.945,0.277,0.188
3/22/2023 09:17:15.870,-0.949,0.281,0.18
3/22/2023 09:17:15.880,-0.957,0.289,0.172
3/22/2023 09:17:15.890,-0.961,0.293,0.164
3/22/2023 09:17:15.900,-0.953,0.301,0.148
3/22/2023 09:17:15.910,-0.945,0.305,0.141
3/22/2023 09:17:15.920,-0.941,0.301,0.141
3/22/2023 09:17:15.930,-0.941,0.285,0.156
3/22/2023 09:17:15.940,-0.938,0.273,0.168
3/22/2023 09:17:15.950,-0.93,0.273,0.156
3/22/2023 09:17:15.960,-0.93,0.273,0.145
3/22/2023 09:17:15.970,-0.934,0.273,0.145
3/22/2023 09:17:15.980,-0.938,0.27,0.148
3/22/2023 09:17:15.990,-0.934,0.273,0.152
3/22/2023 09:17:16.000,-0.949,0.281,0.145
3/22/2023 09:17:16.010,-0.949,0.289,0.152
3/22/2023 09:17:16.020,-0.953,0.289,0.156
3/22/2023 09:17:16.030,-0.953,0.297,0.16
3/22/2023 09:17:16.040,-0.957,0.301,0.168
3/22/2023 09:17:16.050,-0.961,0.305,0.172
3/22/2023 09:17:16.060,-0.957,0.301,0.184
3/22/2023 09:17:16.070,-0.949,0.289,0.188
3/22/2023 09:17:16.080,-0.945,0.277,0.18
3/22/2023 09:17:16.090,-0.934,0.266,0.176
3/22/2023 09:17:16.100,-0.922,0.262,0.188
3/22/2023 09:17:16.110,-0.914,0.258,0.191
3/22/2023 09:17:16.120,-0.922,0.266,0.188
3/22/2023 09:17:16.130,-0.926,0.273,0.184
3/22/2023 09:17:16.140,-0.926,0.277,0.18
3/22/2023 09:17:16.150,-0.922,0.277,0.18
3/22/2023 09:17:16.160,-0.934,0.273,0.176
3/22/2023 09:17:16.170,-0.938,0.27,0.184
3/22/2023 09:17:16.180,-0.93,0.266,0.191
3/22/2023 09:17:16.190,-0.93,0.262,0.191
3/22/2023 09:17:16.200,-0.934,0.262,0.191
3/22/2023 09:17:16.210,-0.934,0.254,0.18
3/22/2023 09:17:16.220,-0.938,0.262,0.172
3/22/2023 09:17:16.230,-0.938,0.273,0.164
3/22/2023 09:17:16.240,-0.938,0.273,0.16
3/22/2023 09:17:16.250,-0.938,0.285,0.164
3/22/2023 09:17:16.260,-0.938,0.277,0.168
3/22/2023 09:17:16.270,-0.941,0.273,0.172
3/22/2023 09:17:16.280,-0.938,0.273,0.172
3/22/2023 09:17:16.290,-0.938,0.273,0.176
3/22/2023 09:17:16.300,-0.934,0.27,0.176
3/22/2023 09:17:16.310,-0.926,0.27,0.176
3/22/2023 09:17:16.320,-0.93,0.266,0.176
3/22/2023 09:17:16.330,-0.922,0.266,0.184
3/22/2023 09:17:16.340,-0.926,0.27,0.184
3/22/2023 09:17:16.350,-0.926,0.277,0.176
3/22/2023 09:17:16.360,-0.93,0.285,0.176
3/22/2023 09:17:16.370,-0.938,0.277,0.184
3/22/2023 09:17:16.380,-0.934,0.273,0.188
3/22/2023 09:17:16.390,-0.93,0.277,0.188
3/22/2023 09:17:16.400,-0.926,0.277,0.188
3/22/2023 09:17:16.410,-0.926,0.281,0.18
3/22/2023 09:17:16.420,-0.926,0.289,0.18
3/22/2023 09:17:16.430,-0.926,0.281,0.18
3/22/2023 09:17:16.440,-0.93,0.285,0.176
3/22/2023 09:17:16.450,-0.93,0.289,0.176
3/22/2023 09:17:16.460,-0.93,0.285,0.176
3/22/2023 09:17:16.470,-0.93,0.285,0.18
3/22/2023 09:17:16.480,-0.93,0.293,0.184
3/22/2023 09:17:16.490,-0.922,0.293,0.184
3/22/2023 09:17:16.500,-0.938,0.301,0.18
3/22/2023 09:17:16.510,-0.934,0.293,0.188
3/22/2023 09:17:16.520,-0.938,0.293,0.184
3/22/2023 09:17:16.530,-0.941,0.293,0.188
3/22/2023 09:17:16.540,-0.941,0.293,0.199
3/22/2023 09:17:16.550,-0.941,0.285,0.199
3/22/2023 09:17:16.560,-0.949,0.277,0.203
3/22/2023 09:17:16.570,-0.945,0.281,0.199
3/22/2023 09:17:16.580,-0.945,0.277,0.199
3/22/2023 09:17:16.590,-0.945,0.281,0.195
3/22/2023 09:17:16.600,-0.941,0.277,0.191
3/22/2023 09:17:16.610,-0.941,0.281,0.191
3/22/2023 09:17:16.620,-0.938,0.277,0.188
3/22/2023 09:17:16.630,-0.938,0.277,0.191
3/22/2023 09:17:16.640,-0.934,0.273,0.184
3/22/2023 09:17:16.650,-0.922,0.277,0.18
3/22/2023 09:17:16.660,-0.926,0.277,0.191
3/22/2023 09:17:16.670,-0.93,0.273,0.199
3/22/2023 09:17:16.680,-0.926,0.277,0.199
3/22/2023 09:17:16.690,-0.93,0.273,0.195
3/22/2023 09:17:16.700,-0.922,0.273,0.191
3/22/2023 09:17:16.710,-0.914,0.273,0.195
3/22/2023 09:17:16.720,-0.922,0.273,0.199
3/22/2023 09:17:16.730,-0.922,0.289,0.207
3/22/2023 09:17:16.740,-0.93,0.297,0.203
3/22/2023 09:17:16.750,-0.934,0.293,0.203
3/22/2023 09:17:16.760,-0.938,0.289,0.199
3/22/2023 09:17:16.770,-0.934,0.285,0.199
3/22/2023 09:17:16.780,-0.93,0.289,0.207
3/22/2023 09:17:16.790,-0.922,0.297,0.199
3/22/2023 09:17:16.800,-0.914,0.305,0.203
3/22/2023 09:17:16.810,-0.914,0.305,0.199
3/22/2023 09:17:16.820,-0.918,0.305,0.195
3/22/2023 09:17:16.830,-0.918,0.305,0.195
3/22/2023 09:17:16.840,-0.918,0.305,0.195
3/22/2023 09:17:16.850,-0.906,0.313,0.184
3/22/2023 09:17:16.860,-0.91,0.313,0.18
3/22/2023 09:17:16.870,-0.91,0.305,0.18
3/22/2023 09:17:16.880,-0.91,0.301,0.18
3/22/2023 09:17:16.890,-0.906,0.297,0.188
3/22/2023 09:17:16.900,-0.906,0.289,0.191
3/22/2023 09:17:16.910,-0.906,0.289,0.199
3/22/2023 09:17:16.920,-0.902,0.289,0.195
3/22/2023 09:17:16.930,-0.902,0.289,0.195
3/22/2023 09:17:16.940,-0.906,0.297,0.188
3/22/2023 09:17:16.950,-0.914,0.309,0.188
3/22/2023 09:17:16.960,-0.918,0.316,0.199
3/22/2023 09:17:16.970,-0.918,0.316,0.191
3/22/2023 09:17:16.980,-0.93,0.313,0.195
3/22/2023 09:17:16.990,-0.93,0.313,0.191
3/22/2023 09:17:17.000,-0.941,0.316,0.184
3/22/2023 09:17:17.010,-0.938,0.309,0.18
3/22/2023 09:17:17.020,-0.934,0.305,0.18
3/22/2023 09:17:17.030,-0.922,0.297,0.148
3/22/2023 09:17:17.040,-0.934,0.305,0.164
3/22/2023 09:17:17.050,-0.941,0.309,0.195
3/22/2023 09:17:17.060,-0.941,0.301,0.211
3/22/2023 09:17:17.070,-0.938,0.301,0.203
3/22/2023 09:17:17.080,-0.938,0.305,0.199
3/22/2023 09:17:17.090,-0.93,0.305,0.195
3/22/2023 09:17:17.100,-0.93,0.301,0.195
3/22/2023 09:17:17.110,-0.934,0.301,0.184
3/22/2023 09:17:17.120,-0.938,0.305,0.188
3/22/2023 09:17:17.130,-0.941,0.301,0.191
3/22/2023 09:17:17.140,-0.945,0.285,0.191
3/22/2023 09:17:17.150,-0.953,0.293,0.195
3/22/2023 09:17:17.160,-0.961,0.289,0.191
3/22/2023 09:17:17.170,-0.953,0.289,0.188
3/22/2023 09:17:17.180,-0.949,0.289,0.188
3/22/2023 09:17:17.190,-0.945,0.281,0.195
3/22/2023 09:17:17.200,-0.945,0.277,0.195
3/22/2023 09:17:17.210,-0.941,0.281,0.195
3/22/2023 09:17:17.220,-0.941,0.281,0.203
3/22/2023 09:17:17.230,-0.945,0.273,0.207
3/22/2023 09:17:17.240,-0.945,0.273,0.203
3/22/2023 09:17:17.250,-0.949,0.27,0.199
3/22/2023 09:17:17.260,-0.945,0.266,0.195
3/22/2023 09:17:17.270,-0.945,0.262,0.199
3/22/2023 09:17:17.280,-0.941,0.262,0.203
3/22/2023 09:17:17.290,-0.938,0.262,0.207
3/22/2023 09:17:17.300,-0.938,0.254,0.207
3/22/2023 09:17:17.310,-0.938,0.25,0.203
3/22/2023 09:17:17.320,-0.938,0.25,0.203
3/22/2023 09:17:17.330,-0.934,0.242,0.211
3/22/2023 09:17:17.340,-0.934,0.25,0.211
3/22/2023 09:17:17.350,-0.934,0.254,0.207
3/22/2023 09:17:17.360,-0.934,0.25,0.211
3/22/2023 09:17:17.370,-0.941,0.25,0.211
3/22/2023 09:17:17.380,-0.945,0.254,0.219
3/22/2023 09:17:17.390,-0.949,0.258,0.219
3/22/2023 09:17:17.400,-0.945,0.266,0.219
3/22/2023 09:17:17.410,-0.945,0.27,0.211
3/22/2023 09:17:17.420,-0.945,0.27,0.188
3/22/2023 09:17:17.430,-0.945,0.277,0.168
3/22/2023 09:17:17.440,-0.941,0.266,0.16
3/22/2023 09:17:17.450,-0.941,0.25,0.156
3/22/2023 09:17:17.460,-0.938,0.238,0.164
3/22/2023 09:17:17.470,-0.938,0.25,0.172
3/22/2023 09:17:17.480,-0.934,0.266,0.18
3/22/2023 09:17:17.490,-0.93,0.262,0.184
3/22/2023 09:17:17.500,-0.938,0.254,0.176
3/22/2023 09:17:17.510,-0.926,0.238,0.176
3/22/2023 09:17:17.520,-0.922,0.234,0.172
3/22/2023 09:17:17.530,-0.926,0.23,0.18
3/22/2023 09:17:17.540,-0.934,0.234,0.191
3/22/2023 09:17:17.550,-0.93,0.238,0.195
3/22/2023 09:17:17.560,-0.934,0.246,0.195
3/22/2023 09:17:17.570,-0.938,0.238,0.195
3/22/2023 09:17:17.580,-0.938,0.23,0.199
3/22/2023 09:17:17.590,-0.941,0.227,0.203
3/22/2023 09:17:17.600,-0.941,0.23,0.207
3/22/2023 09:17:17.610,-0.945,0.242,0.203
3/22/2023 09:17:17.620,-0.941,0.242,0.203
3/22/2023 09:17:17.630,-0.941,0.234,0.207
3/22/2023 09:17:17.640,-0.934,0.23,0.211
3/22/2023 09:17:17.650,-0.926,0.227,0.219
3/22/2023 09:17:17.660,-0.922,0.223,0.223
3/22/2023 09:17:17.670,-0.918,0.223,0.223
3/22/2023 09:17:17.680,-0.93,0.227,0.219
3/22/2023 09:17:17.690,-0.93,0.227,0.215
3/22/2023 09:17:17.700,-0.93,0.23,0.211
3/22/2023 09:17:17.710,-0.934,0.23,0.207
3/22/2023 09:17:17.720,-0.934,0.234,0.211
3/22/2023 09:17:17.730,-0.934,0.242,0.207
3/22/2023 09:17:17.740,-0.938,0.238,0.207
3/22/2023 09:17:17.750,-0.938,0.238,0.203
3/22/2023 09:17:17.760,-0.941,0.234,0.203
3/22/2023 09:17:17.770,-0.941,0.234,0.199
3/22/2023 09:17:17.780,-0.941,0.242,0.203
3/22/2023 09:17:17.790,-0.938,0.234,0.207
3/22/2023 09:17:17.800,-0.938,0.23,0.211
3/22/2023 09:17:17.810,-0.93,0.23,0.219
3/22/2023 09:17:17.820,-0.926,0.238,0.227
3/22/2023 09:17:17.830,-0.922,0.246,0.234
3/22/2023 09:17:17.840,-0.926,0.25,0.242
3/22/2023 09:17:17.850,-0.922,0.258,0.238
3/22/2023 09:17:17.860,-0.926,0.273,0.23
3/22/2023 09:17:17.870,-0.934,0.293,0.219
3/22/2023 09:17:17.880,-0.938,0.309,0.215
3/22/2023 09:17:17.890,-0.938,0.32,0.211
3/22/2023 09:17:17.900,-0.941,0.32,0.207
3/22/2023 09:17:17.910,-0.945,0.313,0.199
3/22/2023 09:17:17.920,-0.953,0.309,0.188
3/22/2023 09:17:17.930,-0.949,0.309,0.18
3/22/2023 09:17:17.940,-0.945,0.289,0.188
3/22/2023 09:17:17.950,-0.941,0.277,0.195
3/22/2023 09:17:17.960,-0.941,0.27,0.199
3/22/2023 09:17:17.970,-0.938,0.266,0.199
3/22/2023 09:17:17.980,-0.934,0.262,0.199
3/22/2023 09:17:17.990,-0.938,0.258,0.207
3/22/2023 09:17:18.000,-0.949,0.262,0.215
3/22/2023 09:17:18.010,-0.945,0.27,0.215
3/22/2023 09:17:18.020,-0.945,0.281,0.215
3/22/2023 09:17:18.030,-0.941,0.289,0.219
3/22/2023 09:17:18.040,-0.941,0.293,0.215
3/22/2023 09:17:18.050,-0.938,0.285,0.215
3/22/2023 09:17:18.060,-0.934,0.281,0.23
3/22/2023 09:17:18.070,-0.918,0.277,0.242
3/22/2023 09:17:18.080,-0.918,0.281,0.234
3/22/2023 09:17:18.090,-0.926,0.273,0.223
3/22/2023 09:17:18.100,-0.938,0.27,0.227
3/22/2023 09:17:18.110,-0.941,0.262,0.234
3/22/2023 09:17:18.120,-0.941,0.262,0.234
3/22/2023 09:17:18.130,-0.949,0.258,0.223
3/22/2023 09:17:18.140,-0.953,0.262,0.211
3/22/2023 09:17:18.150,-0.945,0.266,0.211
3/22/2023 09:17:18.160,-0.938,0.266,0.203
3/22/2023 09:17:18.170,-0.941,0.258,0.188
3/22/2023 09:17:18.180,-0.941,0.262,0.18
3/22/2023 09:17:18.190,-0.938,0.262,0.188
3/22/2023 09:17:18.200,-0.934,0.266,0.188
3/22/2023 09:17:18.210,-0.93,0.266,0.191
3/22/2023 09:17:18.220,-0.934,0.266,0.203
3/22/2023 09:17:18.230,-0.926,0.262,0.211
3/22/2023 09:17:18.240,-0.926,0.254,0.211
3/22/2023 09:17:18.250,-0.918,0.242,0.207
3/22/2023 09:17:18.260,-0.934,0.238,0.211
3/22/2023 09:17:18.270,-0.941,0.246,0.207
3/22/2023 09:17:18.280,-0.945,0.246,0.199
3/22/2023 09:17:18.290,-0.941,0.238,0.188
3/22/2023 09:17:18.300,-0.941,0.25,0.184
3/22/2023 09:17:18.310,-0.941,0.258,0.184
3/22/2023 09:17:18.320,-0.945,0.25,0.191
3/22/2023 09:17:18.330,-0.945,0.246,0.18
3/22/2023 09:17:18.340,-0.945,0.254,0.168
3/22/2023 09:17:18.350,-0.941,0.266,0.152
3/22/2023 09:17:18.360,-0.945,0.273,0.145
3/22/2023 09:17:18.370,-0.941,0.273,0.133
3/22/2023 09:17:18.380,-0.941,0.277,0.133
3/22/2023 09:17:18.390,-0.941,0.273,0.141
3/22/2023 09:17:18.400,-0.938,0.266,0.141
3/22/2023 09:17:18.410,-0.941,0.258,0.141
3/22/2023 09:17:18.420,-0.945,0.262,0.145
3/22/2023 09:17:18.430,-0.949,0.258,0.148
3/22/2023 09:17:18.440,-0.953,0.254,0.148
3/22/2023 09:17:18.450,-0.961,0.258,0.148
3/22/2023 09:17:18.460,-0.961,0.258,0.133
3/22/2023 09:17:18.470,-0.957,0.254,0.133
3/22/2023 09:17:18.480,-0.957,0.262,0.148
3/22/2023 09:17:18.490,-0.949,0.277,0.164
3/22/2023 09:17:18.500,-0.945,0.281,0.176
3/22/2023 09:17:18.510,-0.934,0.254,0.207
3/22/2023 09:17:18.520,-0.93,0.242,0.223
3/22/2023 09:17:18.530,-0.934,0.23,0.23
3/22/2023 09:17:18.540,-0.938,0.234,0.227
3/22/2023 09:17:18.550,-0.938,0.25,0.223
3/22/2023 09:17:18.560,-0.941,0.246,0.223
3/22/2023 09:17:18.570,-0.961,0.23,0.234
3/22/2023 09:17:18.580,-0.98,0.211,0.234
3/22/2023 09:17:18.590,-0.988,0.215,0.227
3/22/2023 09:17:18.600,-0.984,0.23,0.215
3/22/2023 09:17:18.610,-0.977,0.238,0.207
3/22/2023 09:17:18.620,-0.973,0.242,0.211
3/22/2023 09:17:18.630,-0.957,0.238,0.219
3/22/2023 09:17:18.640,-0.938,0.242,0.215
3/22/2023 09:17:18.650,-0.93,0.258,0.215
3/22/2023 09:17:18.660,-0.914,0.273,0.215
3/22/2023 09:17:18.670,-0.91,0.277,0.215
3/22/2023 09:17:18.680,-0.906,0.277,0.219
3/22/2023 09:17:18.690,-0.906,0.273,0.223
3/22/2023 09:17:18.700,-0.914,0.27,0.219
3/22/2023 09:17:18.710,-0.93,0.277,0.207
3/22/2023 09:17:18.720,-0.941,0.285,0.188
3/22/2023 09:17:18.730,-0.953,0.297,0.172
3/22/2023 09:17:18.740,-0.949,0.289,0.16
3/22/2023 09:17:18.750,-0.949,0.277,0.156
3/22/2023 09:17:18.760,-0.945,0.258,0.152
3/22/2023 09:17:18.770,-0.941,0.254,0.152
3/22/2023 09:17:18.780,-0.938,0.258,0.16
3/22/2023 09:17:18.790,-0.926,0.258,0.156
3/22/2023 09:17:18.800,-0.922,0.262,0.152
3/22/2023 09:17:18.810,-0.926,0.262,0.152
3/22/2023 09:17:18.820,-0.934,0.266,0.148
3/22/2023 09:17:18.830,-0.938,0.266,0.148
3/22/2023 09:17:18.840,-0.941,0.273,0.145
3/22/2023 09:17:18.850,-0.945,0.281,0.148
3/22/2023 09:17:18.860,-0.938,0.281,0.152
3/22/2023 09:17:18.870,-0.938,0.273,0.16
3/22/2023 09:17:18.880,-0.93,0.266,0.176
3/22/2023 09:17:18.890,-0.918,0.27,0.18
3/22/2023 09:17:18.900,-0.91,0.273,0.18
3/22/2023 09:17:18.910,-0.91,0.273,0.191
3/22/2023 09:17:18.920,-0.91,0.27,0.199
3/22/2023 09:17:18.930,-0.914,0.246,0.191
3/22/2023 09:17:18.940,-0.926,0.25,0.18
3/22/2023 09:17:18.950,-0.934,0.258,0.16
3/22/2023 09:17:18.960,-0.938,0.273,0.156
3/22/2023 09:17:18.970,-0.938,0.281,0.148
3/22/2023 09:17:18.980,-0.941,0.281,0.164
3/22/2023 09:17:18.990,-0.941,0.281,0.184
3/22/2023 09:17:19.000,-0.953,0.297,0.203
3/22/2023 09:17:19.010,-0.934,0.289,0.207
3/22/2023 09:17:19.020,-0.93,0.281,0.211
3/22/2023 09:17:19.030,-0.926,0.273,0.207
3/22/2023 09:17:19.040,-0.918,0.27,0.199
3/22/2023 09:17:19.050,-0.918,0.266,0.199
3/22/2023 09:17:19.060,-0.922,0.266,0.203
3/22/2023 09:17:19.070,-0.934,0.27,0.203
3/22/2023 09:17:19.080,-0.934,0.277,0.203
3/22/2023 09:17:19.090,-0.934,0.281,0.207
3/22/2023 09:17:19.100,-0.922,0.293,0.219
3/22/2023 09:17:19.110,-0.93,0.297,0.215
3/22/2023 09:17:19.120,-0.926,0.305,0.215
3/22/2023 09:17:19.130,-0.934,0.305,0.211
3/22/2023 09:17:19.140,-0.941,0.305,0.207
3/22/2023 09:17:19.150,-0.941,0.301,0.207
3/22/2023 09:17:19.160,-0.938,0.309,0.207
3/22/2023 09:17:19.170,-0.93,0.32,0.203
3/22/2023 09:17:19.180,-0.934,0.328,0.188
3/22/2023 09:17:19.190,-0.926,0.309,0.18
3/22/2023 09:17:19.200,-0.914,0.289,0.16
3/22/2023 09:17:19.210,-0.918,0.273,0.164
3/22/2023 09:17:19.220,-0.918,0.281,0.168
3/22/2023 09:17:19.230,-0.926,0.289,0.184
3/22/2023 09:17:19.240,-0.934,0.293,0.203
3/22/2023 09:17:19.250,-0.934,0.297,0.203
3/22/2023 09:17:19.260,-0.93,0.316,0.199
3/22/2023 09:17:19.270,-0.926,0.316,0.195
3/22/2023 09:17:19.280,-0.922,0.285,0.199
3/22/2023 09:17:19.290,-0.926,0.262,0.219
3/22/2023 09:17:19.300,-0.93,0.25,0.215
3/22/2023 09:17:19.310,-0.938,0.258,0.219
3/22/2023 09:17:19.320,-0.938,0.262,0.242
3/22/2023 09:17:19.330,-0.938,0.262,0.262
3/22/2023 09:17:19.340,-0.93,0.262,0.273
3/22/2023 09:17:19.350,-0.934,0.254,0.266
3/22/2023 09:17:19.360,-0.93,0.27,0.242
3/22/2023 09:17:19.370,-0.926,0.289,0.223
3/22/2023 09:17:19.380,-0.926,0.281,0.215
3/22/2023 09:17:19.390,-0.918,0.277,0.203
3/22/2023 09:17:19.400,-0.922,0.281,0.199
3/22/2023 09:17:19.410,-0.93,0.277,0.207
3/22/2023 09:17:19.420,-0.93,0.27,0.219
3/22/2023 09:17:19.430,-0.93,0.262,0.223
3/22/2023 09:17:19.440,-0.934,0.262,0.207
3/22/2023 09:17:19.450,-0.945,0.27,0.195
3/22/2023 09:17:19.460,-0.941,0.27,0.203
3/22/2023 09:17:19.470,-0.934,0.266,0.223
3/22/2023 09:17:19.480,-0.934,0.246,0.219
3/22/2023 09:17:19.490,-0.922,0.234,0.195
3/22/2023 09:17:19.500,-0.938,0.246,0.168
3/22/2023 09:17:19.510,-0.941,0.27,0.16
3/22/2023 09:17:19.520,-0.941,0.293,0.164
3/22/2023 09:17:19.530,-0.934,0.313,0.184
3/22/2023 09:17:19.540,-0.938,0.309,0.195
3/22/2023 09:17:19.550,-0.938,0.301,0.188
3/22/2023 09:17:19.560,-0.934,0.289,0.18
3/22/2023 09:17:19.570,-0.93,0.289,0.176
3/22/2023 09:17:19.580,-0.938,0.289,0.172
3/22/2023 09:17:19.590,-0.941,0.281,0.191
3/22/2023 09:17:19.600,-0.941,0.262,0.199
3/22/2023 09:17:19.610,-0.941,0.246,0.191
3/22/2023 09:17:19.620,-0.941,0.254,0.18
3/22/2023 09:17:19.630,-0.934,0.266,0.172
3/22/2023 09:17:19.640,-0.93,0.281,0.168
3/22/2023 09:17:19.650,-0.938,0.293,0.172
3/22/2023 09:17:19.660,-0.938,0.285,0.188
3/22/2023 09:17:19.670,-0.938,0.277,0.203
3/22/2023 09:17:19.680,-0.926,0.27,0.207
3/22/2023 09:17:19.690,-0.918,0.266,0.203
3/22/2023 09:17:19.700,-0.922,0.254,0.195
3/22/2023 09:17:19.710,-0.926,0.25,0.191
3/22/2023 09:17:19.720,-0.938,0.254,0.184
3/22/2023 09:17:19.730,-0.953,0.266,0.18
3/22/2023 09:17:19.740,-0.965,0.27,0.184
3/22/2023 09:17:19.750,-0.98,0.285,0.191
3/22/2023 09:17:19.760,-0.98,0.297,0.191
3/22/2023 09:17:19.770,-0.965,0.309,0.195
3/22/2023 09:17:19.780,-0.949,0.293,0.203
3/22/2023 09:17:19.790,-0.926,0.266,0.223
3/22/2023 09:17:19.800,-0.902,0.238,0.238
3/22/2023 09:17:19.810,-0.879,0.227,0.238
3/22/2023 09:17:19.820,-0.863,0.223,0.234
3/22/2023 09:17:19.830,-0.859,0.211,0.215
3/22/2023 09:17:19.840,-0.863,0.211,0.191
3/22/2023 09:17:19.850,-0.871,0.219,0.18
3/22/2023 09:17:19.860,-0.883,0.242,0.156
3/22/2023 09:17:19.870,-0.895,0.258,0.137
3/22/2023 09:17:19.880,-0.926,0.246,0.141
3/22/2023 09:17:19.890,-0.961,0.215,0.156
3/22/2023 09:17:19.900,-0.992,0.223,0.168
3/22/2023 09:17:19.910,-1.008,0.262,0.172
3/22/2023 09:17:19.920,-1.004,0.328,0.176
3/22/2023 09:17:19.930,-0.988,0.379,0.203
3/22/2023 09:17:19.940,-0.965,0.383,0.211
3/22/2023 09:17:19.950,-0.949,0.379,0.195
3/22/2023 09:17:19.960,-0.941,0.363,0.203
3/22/2023 09:17:19.970,-0.914,0.332,0.211
3/22/2023 09:17:19.980,-0.891,0.309,0.219
3/22/2023 09:17:19.990,-0.879,0.27,0.207
3/22/2023 09:17:20.000,-0.895,0.238,0.191
3/22/2023 09:17:20.010,-0.902,0.211,0.176
3/22/2023 09:17:20.020,-0.93,0.195,0.156
3/22/2023 09:17:20.030,-0.945,0.195,0.148
3/22/2023 09:17:20.040,-0.961,0.203,0.145
3/22/2023 09:17:20.050,-0.969,0.215,0.152
3/22/2023 09:17:20.060,-0.965,0.23,0.168
3/22/2023 09:17:20.070,-0.957,0.254,0.191
3/22/2023 09:17:20.080,-0.945,0.285,0.211
3/22/2023 09:17:20.090,-0.938,0.309,0.23
3/22/2023 09:17:20.100,-0.93,0.32,0.242
3/22/2023 09:17:20.110,-0.926,0.324,0.242
3/22/2023 09:17:20.120,-0.922,0.316,0.246
3/22/2023 09:17:20.130,-0.918,0.313,0.23
3/22/2023 09:17:20.140,-0.922,0.301,0.207
3/22/2023 09:17:20.150,-0.934,0.281,0.168
3/22/2023 09:17:20.160,-0.957,0.27,0.137
3/22/2023 09:17:20.170,-0.98,0.258,0.117
3/22/2023 09:17:20.180,-0.996,0.254,0.113
3/22/2023 09:17:20.190,-1,0.258,0.121
3/22/2023 09:17:20.200,-0.988,0.262,0.137
3/22/2023 09:17:20.210,-0.973,0.266,0.156
3/22/2023 09:17:20.220,-0.957,0.273,0.176
3/22/2023 09:17:20.230,-0.953,0.277,0.191
3/22/2023 09:17:20.240,-0.941,0.281,0.215
3/22/2023 09:17:20.250,-0.918,0.281,0.234
3/22/2023 09:17:20.260,-0.895,0.273,0.242
3/22/2023 09:17:20.270,-0.875,0.266,0.238
3/22/2023 09:17:20.280,-0.863,0.25,0.227
3/22/2023 09:17:20.290,-0.859,0.238,0.211
3/22/2023 09:17:20.300,-0.852,0.227,0.211
3/22/2023 09:17:20.310,-0.852,0.215,0.207
3/22/2023 09:17:20.320,-0.852,0.219,0.211
3/22/2023 09:17:20.330,-0.836,0.242,0.219
3/22/2023 09:17:20.340,-0.82,0.262,0.242
3/22/2023 09:17:20.350,-0.809,0.285,0.27
3/22/2023 09:17:20.360,-0.816,0.305,0.309
3/22/2023 09:17:20.370,-0.852,0.328,0.336
3/22/2023 09:17:20.380,-0.902,0.355,0.348
3/22/2023 09:17:20.390,-0.941,0.387,0.344
3/22/2023 09:17:20.400,-0.953,0.43,0.316
3/22/2023 09:17:20.410,-0.938,0.48,0.266
3/22/2023 09:17:20.420,-0.914,0.527,0.215
3/22/2023 09:17:20.430,-0.891,0.57,0.195
3/22/2023 09:17:20.440,-0.867,0.594,0.203
3/22/2023 09:17:20.450,-0.844,0.586,0.227
3/22/2023 09:17:20.460,-0.809,0.563,0.25
3/22/2023 09:17:20.470,-0.754,0.535,0.285
3/22/2023 09:17:20.480,-0.703,0.52,0.305
3/22/2023 09:17:20.490,-0.676,0.5,0.32
3/22/2023 09:17:20.500,-0.676,0.496,0.336
3/22/2023 09:17:20.510,-0.668,0.488,0.34
3/22/2023 09:17:20.520,-0.676,0.512,0.328
3/22/2023 09:17:20.530,-0.699,0.555,0.289
3/22/2023 09:17:20.540,-0.75,0.59,0.25
3/22/2023 09:17:20.550,-0.82,0.625,0.219
3/22/2023 09:17:20.560,-0.922,0.648,0.199
3/22/2023 09:17:20.570,-1.023,0.66,0.188
3/22/2023 09:17:20.580,-1.113,0.668,0.176
3/22/2023 09:17:20.590,-1.176,0.676,0.176
3/22/2023 09:17:20.600,-1.195,0.676,0.176
3/22/2023 09:17:20.610,-1.18,0.664,0.191
3/22/2023 09:17:20.620,-1.145,0.629,0.207
3/22/2023 09:17:20.630,-1.105,0.582,0.23
3/22/2023 09:17:20.640,-1.063,0.527,0.246
3/22/2023 09:17:20.650,-1.02,0.496,0.254
3/22/2023 09:17:20.660,-0.984,0.469,0.246
3/22/2023 09:17:20.670,-0.945,0.457,0.238
3/22/2023 09:17:20.680,-0.898,0.449,0.223
3/22/2023 09:17:20.690,-0.855,0.441,0.219
3/22/2023 09:17:20.700,-0.816,0.438,0.215
3/22/2023 09:17:20.710,-0.793,0.434,0.219
3/22/2023 09:17:20.720,-0.793,0.422,0.215
3/22/2023 09:17:20.730,-0.793,0.414,0.207
3/22/2023 09:17:20.740,-0.797,0.406,0.191
3/22/2023 09:17:20.750,-0.793,0.395,0.184
3/22/2023 09:17:20.760,-0.793,0.391,0.168
3/22/2023 09:17:20.770,-0.793,0.383,0.156
3/22/2023 09:17:20.780,-0.793,0.395,0.152
3/22/2023 09:17:20.790,-0.797,0.398,0.152
3/22/2023 09:17:20.800,-0.805,0.406,0.164
3/22/2023 09:17:20.810,-0.816,0.414,0.18
3/22/2023 09:17:20.820,-0.828,0.43,0.188
3/22/2023 09:17:20.830,-0.832,0.434,0.199
3/22/2023 09:17:20.840,-0.828,0.426,0.215
3/22/2023 09:17:20.850,-0.813,0.418,0.227
3/22/2023 09:17:20.860,-0.797,0.414,0.238
3/22/2023 09:17:20.870,-0.773,0.41,0.242
3/22/2023 09:17:20.880,-0.738,0.41,0.234
3/22/2023 09:17:20.890,-0.699,0.422,0.223
3/22/2023 09:17:20.900,-0.668,0.438,0.219
3/22/2023 09:17:20.910,-0.641,0.445,0.234
3/22/2023 09:17:20.920,-0.621,0.445,0.242
3/22/2023 09:17:20.930,-0.617,0.445,0.246
3/22/2023 09:17:20.940,-0.625,0.445,0.246
3/22/2023 09:17:20.950,-0.641,0.441,0.25
3/22/2023 09:17:20.960,-0.648,0.434,0.25
3/22/2023 09:17:20.970,-0.66,0.418,0.246
3/22/2023 09:17:20.980,-0.668,0.414,0.238
3/22/2023 09:17:20.990,-0.676,0.41,0.227
3/22/2023 09:17:21.000,-0.695,0.402,0.227
3/22/2023 09:17:21.010,-0.703,0.398,0.23
3/22/2023 09:17:21.020,-0.719,0.398,0.227
3/22/2023 09:17:21.030,-0.738,0.391,0.234
3/22/2023 09:17:21.040,-0.762,0.383,0.242
3/22/2023 09:17:21.050,-0.785,0.379,0.234
3/22/2023 09:17:21.060,-0.816,0.375,0.234
3/22/2023 09:17:21.070,-0.848,0.379,0.242
3/22/2023 09:17:21.080,-0.879,0.379,0.25
3/22/2023 09:17:21.090,-0.91,0.379,0.25
3/22/2023 09:17:21.100,-0.957,0.379,0.254
3/22/2023 09:17:21.110,-1.027,0.375,0.254
3/22/2023 09:17:21.120,-1.117,0.359,0.238
3/22/2023 09:17:21.130,-1.199,0.34,0.215
3/22/2023 09:17:21.140,-1.25,0.316,0.18
3/22/2023 09:17:21.150,-1.281,0.289,0.156
3/22/2023 09:17:21.160,-1.289,0.27,0.137
3/22/2023 09:17:21.170,-1.301,0.254,0.117
3/22/2023 09:17:21.180,-1.309,0.238,0.105
3/22/2023 09:17:21.190,-1.285,0.223,0.109
3/22/2023 09:17:21.200,-1.242,0.211,0.133
3/22/2023 09:17:21.210,-1.191,0.195,0.156
3/22/2023 09:17:21.220,-1.141,0.188,0.184
3/22/2023 09:17:21.230,-1.098,0.188,0.203
3/22/2023 09:17:21.240,-1.051,0.18,0.227
3/22/2023 09:17:21.250,-1.02,0.156,0.242
3/22/2023 09:17:21.260,-1.004,0.133,0.25
3/22/2023 09:17:21.270,-1.027,0.113,0.234
3/22/2023 09:17:21.280,-1.074,0.09,0.203
3/22/2023 09:17:21.290,-1.113,0.063,0.176
3/22/2023 09:17:21.300,-1.117,0.039,0.152
3/22/2023 09:17:21.310,-1.105,0.023,0.129
3/22/2023 09:17:21.320,-1.09,0.023,0.113
3/22/2023 09:17:21.330,-1.078,0.027,0.109
3/22/2023 09:17:21.340,-1.066,0.035,0.117
3/22/2023 09:17:21.350,-1.047,0.055,0.129
3/22/2023 09:17:21.360,-1.02,0.078,0.141
3/22/2023 09:17:21.370,-0.988,0.102,0.16
3/22/2023 09:17:21.380,-0.934,0.113,0.176
3/22/2023 09:17:21.390,-0.887,0.125,0.176
3/22/2023 09:17:21.400,-0.844,0.133,0.172
3/22/2023 09:17:21.410,-0.816,0.141,0.16
3/22/2023 09:17:21.420,-0.789,0.148,0.148
3/22/2023 09:17:21.430,-0.77,0.152,0.145
3/22/2023 09:17:21.440,-0.742,0.16,0.141
3/22/2023 09:17:21.450,-0.723,0.172,0.137
3/22/2023 09:17:21.460,-0.707,0.172,0.137
3/22/2023 09:17:21.470,-0.691,0.168,0.145
3/22/2023 09:17:21.480,-0.684,0.176,0.145
3/22/2023 09:17:21.490,-0.68,0.191,0.156
3/22/2023 09:17:21.500,-0.695,0.207,0.172
3/22/2023 09:17:21.510,-0.707,0.207,0.191
3/22/2023 09:17:21.520,-0.734,0.203,0.207
3/22/2023 09:17:21.530,-0.766,0.199,0.234
3/22/2023 09:17:21.540,-0.805,0.195,0.25
3/22/2023 09:17:21.550,-0.84,0.195,0.262
3/22/2023 09:17:21.560,-0.863,0.195,0.27
3/22/2023 09:17:21.570,-0.875,0.195,0.27
3/22/2023 09:17:21.580,-0.879,0.203,0.273
3/22/2023 09:17:21.590,-0.875,0.215,0.277
3/22/2023 09:17:21.600,-0.879,0.23,0.297
3/22/2023 09:17:21.610,-0.898,0.254,0.309
3/22/2023 09:17:21.620,-0.918,0.285,0.32
3/22/2023 09:17:21.630,-0.941,0.313,0.336
3/22/2023 09:17:21.640,-0.969,0.328,0.348
3/22/2023 09:17:21.650,-1.012,0.344,0.352
3/22/2023 09:17:21.660,-1.047,0.34,0.363
3/22/2023 09:17:21.670,-1.074,0.352,0.375
3/22/2023 09:17:21.680,-1.098,0.34,0.387
3/22/2023 09:17:21.690,-1.113,0.313,0.391
3/22/2023 09:17:21.700,-1.129,0.293,0.398
3/22/2023 09:17:21.710,-1.156,0.273,0.402
3/22/2023 09:17:21.720,-1.184,0.254,0.406
3/22/2023 09:17:21.730,-1.203,0.234,0.387
3/22/2023 09:17:21.740,-1.195,0.23,0.367
3/22/2023 09:17:21.750,-1.18,0.227,0.344
3/22/2023 09:17:21.760,-1.184,0.246,0.324
3/22/2023 09:17:21.770,-1.207,0.27,0.297
3/22/2023 09:17:21.780,-1.223,0.309,0.285
3/22/2023 09:17:21.790,-1.227,0.34,0.289
3/22/2023 09:17:21.800,-1.203,0.371,0.305
3/22/2023 09:17:21.810,-1.16,0.391,0.313
3/22/2023 09:17:21.820,-1.105,0.395,0.309
3/22/2023 09:17:21.830,-1.082,0.379,0.285
3/22/2023 09:17:21.840,-1.094,0.348,0.25
3/22/2023 09:17:21.850,-1.129,0.32,0.215
3/22/2023 09:17:21.860,-1.168,0.301,0.18
3/22/2023 09:17:21.870,-1.207,0.305,0.16
3/22/2023 09:17:21.880,-1.246,0.316,0.145
3/22/2023 09:17:21.890,-1.289,0.328,0.145
3/22/2023 09:17:21.900,-1.344,0.328,0.152
3/22/2023 09:17:21.910,-1.406,0.32,0.156
3/22/2023 09:17:21.920,-1.449,0.301,0.156
3/22/2023 09:17:21.930,-1.465,0.281,0.145
3/22/2023 09:17:21.940,-1.441,0.254,0.141
3/22/2023 09:17:21.950,-1.387,0.234,0.141
3/22/2023 09:17:21.960,-1.297,0.227,0.145
3/22/2023 09:17:21.970,-1.211,0.211,0.156
3/22/2023 09:17:21.980,-1.121,0.203,0.16
3/22/2023 09:17:21.990,-1.035,0.199,0.156
3/22/2023 09:17:22.000,-0.965,0.211,0.141
3/22/2023 09:17:22.010,-0.895,0.227,0.129
3/22/2023 09:17:22.020,-0.852,0.246,0.102
3/22/2023 09:17:22.030,-0.82,0.258,0.082
3/22/2023 09:17:22.040,-0.805,0.27,0.074
3/22/2023 09:17:22.050,-0.785,0.281,0.07
3/22/2023 09:17:22.060,-0.762,0.277,0.074
3/22/2023 09:17:22.070,-0.75,0.266,0.074
3/22/2023 09:17:22.080,-0.738,0.25,0.082
3/22/2023 09:17:22.090,-0.727,0.234,0.086
3/22/2023 09:17:22.100,-0.719,0.223,0.078
3/22/2023 09:17:22.110,-0.715,0.223,0.07
3/22/2023 09:17:22.120,-0.711,0.211,0.07
3/22/2023 09:17:22.130,-0.715,0.199,0.07
3/22/2023 09:17:22.140,-0.73,0.195,0.07
3/22/2023 09:17:22.150,-0.754,0.195,0.078
3/22/2023 09:17:22.160,-0.785,0.195,0.078
3/22/2023 09:17:22.170,-0.813,0.195,0.082
3/22/2023 09:17:22.180,-0.84,0.195,0.086
3/22/2023 09:17:22.190,-0.855,0.199,0.098
3/22/2023 09:17:22.200,-0.867,0.203,0.102
3/22/2023 09:17:22.210,-0.879,0.199,0.113
3/22/2023 09:17:22.220,-0.895,0.199,0.125
3/22/2023 09:17:22.230,-0.926,0.203,0.133
3/22/2023 09:17:22.240,-0.949,0.203,0.141
3/22/2023 09:17:22.250,-0.977,0.184,0.156
3/22/2023 09:17:22.260,-1,0.168,0.164
3/22/2023 09:17:22.270,-1.023,0.148,0.156
3/22/2023 09:17:22.280,-1.047,0.129,0.148
3/22/2023 09:17:22.290,-1.074,0.113,0.133
3/22/2023 09:17:22.300,-1.074,0.109,0.117
3/22/2023 09:17:22.310,-1.059,0.113,0.109
3/22/2023 09:17:22.320,-1.063,0.117,0.117
3/22/2023 09:17:22.330,-1.109,0.121,0.117
3/22/2023 09:17:22.340,-1.176,0.133,0.109
3/22/2023 09:17:22.350,-1.219,0.145,0.094
3/22/2023 09:17:22.360,-1.23,0.152,0.074
3/22/2023 09:17:22.370,-1.195,0.16,0.059
3/22/2023 09:17:22.380,-1.129,0.164,0.059
3/22/2023 09:17:22.390,-1.066,0.168,0.063
3/22/2023 09:17:22.400,-1.035,0.176,0.086
3/22/2023 09:17:22.410,-1.055,0.18,0.121
3/22/2023 09:17:22.420,-1.102,0.191,0.16
3/22/2023 09:17:22.430,-1.16,0.199,0.188
3/22/2023 09:17:22.440,-1.223,0.203,0.207
3/22/2023 09:17:22.450,-1.266,0.211,0.215
3/22/2023 09:17:22.460,-1.297,0.195,0.223
3/22/2023 09:17:22.470,-1.309,0.168,0.219
3/22/2023 09:17:22.480,-1.305,0.148,0.215
3/22/2023 09:17:22.490,-1.281,0.133,0.191
3/22/2023 09:17:22.500,-1.25,0.137,0.176
3/22/2023 09:17:22.510,-1.188,0.141,0.176
3/22/2023 09:17:22.520,-1.109,0.156,0.18
3/22/2023 09:17:22.530,-1.035,0.176,0.203
3/22/2023 09:17:22.540,-0.945,0.195,0.234
3/22/2023 09:17:22.550,-0.855,0.219,0.273
3/22/2023 09:17:22.560,-0.777,0.234,0.313
3/22/2023 09:17:22.570,-0.719,0.254,0.336
3/22/2023 09:17:22.580,-0.676,0.266,0.348
3/22/2023 09:17:22.590,-0.656,0.273,0.348
3/22/2023 09:17:22.600,-0.648,0.277,0.348
3/22/2023 09:17:22.610,-0.645,0.289,0.34
3/22/2023 09:17:22.620,-0.641,0.297,0.34
3/22/2023 09:17:22.630,-0.645,0.301,0.328
3/22/2023 09:17:22.640,-0.645,0.305,0.313
3/22/2023 09:17:22.650,-0.648,0.313,0.305
3/22/2023 09:17:22.660,-0.664,0.316,0.305
3/22/2023 09:17:22.670,-0.688,0.328,0.309
3/22/2023 09:17:22.680,-0.719,0.336,0.32
3/22/2023 09:17:22.690,-0.754,0.34,0.344
3/22/2023 09:17:22.700,-0.805,0.355,0.363
3/22/2023 09:17:22.710,-0.855,0.379,0.391
3/22/2023 09:17:22.720,-0.918,0.398,0.41
3/22/2023 09:17:22.730,-0.98,0.414,0.422
3/22/2023 09:17:22.740,-1.035,0.426,0.422
3/22/2023 09:17:22.750,-1.082,0.434,0.418
3/22/2023 09:17:22.760,-1.109,0.445,0.418
3/22/2023 09:17:22.770,-1.129,0.457,0.41
3/22/2023 09:17:22.780,-1.148,0.461,0.387
3/22/2023 09:17:22.790,-1.164,0.465,0.367
3/22/2023 09:17:22.800,-1.164,0.469,0.359
3/22/2023 09:17:22.810,-1.16,0.473,0.359
3/22/2023 09:17:22.820,-1.148,0.469,0.359
3/22/2023 09:17:22.830,-1.148,0.457,0.355
3/22/2023 09:17:22.840,-1.148,0.453,0.348
3/22/2023 09:17:22.850,-1.129,0.449,0.332
3/22/2023 09:17:22.860,-1.094,0.43,0.316
3/22/2023 09:17:22.870,-1.078,0.418,0.293
3/22/2023 09:17:22.880,-1.109,0.414,0.266
3/22/2023 09:17:22.890,-1.168,0.426,0.246
3/22/2023 09:17:22.900,-1.203,0.441,0.234
3/22/2023 09:17:22.910,-1.203,0.461,0.234
3/22/2023 09:17:22.920,-1.176,0.484,0.234
3/22/2023 09:17:22.930,-1.148,0.504,0.238
3/22/2023 09:17:22.940,-1.141,0.516,0.227
3/22/2023 09:17:22.950,-1.164,0.527,0.215
3/22/2023 09:17:22.960,-1.207,0.543,0.207
3/22/2023 09:17:22.970,-1.254,0.547,0.203
3/22/2023 09:17:22.980,-1.313,0.535,0.191
3/22/2023 09:17:22.990,-1.367,0.516,0.184
3/22/2023 09:17:23.000,-1.43,0.488,0.172
3/22/2023 09:17:23.010,-1.461,0.461,0.168
3/22/2023 09:17:23.020,-1.473,0.441,0.164
3/22/2023 09:17:23.030,-1.461,0.426,0.18
3/22/2023 09:17:23.040,-1.434,0.402,0.195
3/22/2023 09:17:23.050,-1.387,0.371,0.215
3/22/2023 09:17:23.060,-1.34,0.344,0.234
3/22/2023 09:17:23.070,-1.281,0.305,0.246
3/22/2023 09:17:23.080,-1.215,0.273,0.25
3/22/2023 09:17:23.090,-1.141,0.234,0.246
3/22/2023 09:17:23.100,-1.066,0.227,0.238
3/22/2023 09:17:23.110,-1.004,0.223,0.223
3/22/2023 09:17:23.120,-0.953,0.215,0.211
3/22/2023 09:17:23.130,-0.91,0.211,0.199
3/22/2023 09:17:23.140,-0.883,0.203,0.184
3/22/2023 09:17:23.150,-0.859,0.199,0.168
3/22/2023 09:17:23.160,-0.844,0.199,0.16
3/22/2023 09:17:23.170,-0.832,0.195,0.152
3/22/2023 09:17:23.180,-0.82,0.188,0.148
3/22/2023 09:17:23.190,-0.813,0.176,0.145
3/22/2023 09:17:23.200,-0.809,0.164,0.141
3/22/2023 09:17:23.210,-0.801,0.16,0.141
3/22/2023 09:17:23.220,-0.805,0.152,0.137
3/22/2023 09:17:23.230,-0.805,0.152,0.129
3/22/2023 09:17:23.240,-0.809,0.145,0.125
3/22/2023 09:17:23.250,-0.813,0.137,0.121
3/22/2023 09:17:23.260,-0.832,0.137,0.121
3/22/2023 09:17:23.270,-0.855,0.141,0.117
3/22/2023 09:17:23.280,-0.879,0.133,0.109
3/22/2023 09:17:23.290,-0.906,0.125,0.105
3/22/2023 09:17:23.300,-0.934,0.121,0.098
3/22/2023 09:17:23.310,-0.965,0.121,0.098
3/22/2023 09:17:23.320,-0.984,0.121,0.094
3/22/2023 09:17:23.330,-1,0.121,0.098
3/22/2023 09:17:23.340,-1,0.102,0.094
3/22/2023 09:17:23.350,-0.992,0.094,0.078
3/22/2023 09:17:23.360,-0.977,0.098,0.07
3/22/2023 09:17:23.370,-0.957,0.109,0.063
3/22/2023 09:17:23.380,-0.934,0.121,0.059
3/22/2023 09:17:23.390,-0.906,0.133,0.055
3/22/2023 09:17:23.400,-0.891,0.129,0.063
3/22/2023 09:17:23.410,-0.883,0.125,0.086
3/22/2023 09:17:23.420,-0.918,0.137,0.117
3/22/2023 09:17:23.430,-0.988,0.145,0.141
3/22/2023 09:17:23.440,-1.094,0.141,0.137
3/22/2023 09:17:23.450,-1.215,0.129,0.109
3/22/2023 09:17:23.460,-1.301,0.121,0.063
3/22/2023 09:17:23.470,-1.32,0.117,0.031
3/22/2023 09:17:23.480,-1.242,0.113,0.035
3/22/2023 09:17:23.490,-1.137,0.117,0.059
3/22/2023 09:17:23.500,-1.09,0.125,0.098
3/22/2023 09:17:23.510,-1.086,0.148,0.133
3/22/2023 09:17:23.520,-1.125,0.18,0.168
3/22/2023 09:17:23.530,-1.152,0.203,0.195
3/22/2023 09:17:23.540,-1.168,0.219,0.219
3/22/2023 09:17:23.550,-1.172,0.227,0.223
3/22/2023 09:17:23.560,-1.188,0.211,0.219
3/22/2023 09:17:23.570,-1.223,0.195,0.211
3/22/2023 09:17:23.580,-1.258,0.188,0.191
3/22/2023 09:17:23.590,-1.289,0.191,0.172
3/22/2023 09:17:23.600,-1.305,0.207,0.152
3/22/2023 09:17:23.610,-1.316,0.23,0.148
3/22/2023 09:17:23.620,-1.297,0.25,0.156
3/22/2023 09:17:23.630,-1.25,0.262,0.184
3/22/2023 09:17:23.640,-1.191,0.27,0.215
3/22/2023 09:17:23.650,-1.121,0.27,0.25
3/22/2023 09:17:23.660,-1.051,0.27,0.281
3/22/2023 09:17:23.670,-0.984,0.27,0.301
3/22/2023 09:17:23.680,-0.934,0.273,0.316
3/22/2023 09:17:23.690,-0.887,0.273,0.32
3/22/2023 09:17:23.700,-0.852,0.277,0.328
3/22/2023 09:17:23.710,-0.824,0.289,0.34
3/22/2023 09:17:23.720,-0.801,0.305,0.348
3/22/2023 09:17:23.730,-0.785,0.34,0.352
3/22/2023 09:17:23.740,-0.77,0.375,0.34
3/22/2023 09:17:23.750,-0.758,0.402,0.336
3/22/2023 09:17:23.760,-0.746,0.43,0.316
3/22/2023 09:17:23.770,-0.746,0.445,0.309
3/22/2023 09:17:23.780,-0.75,0.445,0.301
3/22/2023 09:17:23.790,-0.758,0.441,0.309
3/22/2023 09:17:23.800,-0.781,0.438,0.316
3/22/2023 09:17:23.810,-0.801,0.438,0.332
3/22/2023 09:17:23.820,-0.836,0.453,0.348
3/22/2023 09:17:23.830,-0.875,0.457,0.367
3/22/2023 09:17:23.840,-0.902,0.473,0.371
3/22/2023 09:17:23.850,-0.914,0.496,0.375
3/22/2023 09:17:23.860,-0.941,0.516,0.363
3/22/2023 09:17:23.870,-0.973,0.523,0.352
3/22/2023 09:17:23.880,-1.012,0.523,0.336
3/22/2023 09:17:23.890,-1.047,0.523,0.316
3/22/2023 09:17:23.900,-1.074,0.527,0.309
3/22/2023 09:17:23.910,-1.098,0.523,0.305
3/22/2023 09:17:23.920,-1.113,0.523,0.301
3/22/2023 09:17:23.930,-1.125,0.523,0.301
3/22/2023 09:17:23.940,-1.141,0.523,0.301
3/22/2023 09:17:23.950,-1.16,0.527,0.305
3/22/2023 09:17:23.960,-1.164,0.523,0.309
3/22/2023 09:17:23.970,-1.148,0.504,0.305
3/22/2023 09:17:23.980,-1.137,0.492,0.297
3/22/2023 09:17:23.990,-1.168,0.492,0.273
3/22/2023 09:17:24.000,-1.238,0.492,0.254
3/22/2023 09:17:24.010,-1.285,0.5,0.246
3/22/2023 09:17:24.020,-1.293,0.527,0.238
3/22/2023 09:17:24.030,-1.242,0.539,0.242
3/22/2023 09:17:24.040,-1.164,0.551,0.246
3/22/2023 09:17:24.050,-1.105,0.555,0.242
3/22/2023 09:17:24.060,-1.098,0.551,0.23
3/22/2023 09:17:24.070,-1.141,0.543,0.215
3/22/2023 09:17:24.080,-1.195,0.527,0.215
3/22/2023 09:17:24.090,-1.242,0.504,0.223
3/22/2023 09:17:24.100,-1.301,0.477,0.234
3/22/2023 09:17:24.110,-1.348,0.445,0.234
3/22/2023 09:17:24.120,-1.383,0.414,0.223
3/22/2023 09:17:24.130,-1.406,0.387,0.211
3/22/2023 09:17:24.140,-1.414,0.359,0.211
3/22/2023 09:17:24.150,-1.406,0.332,0.219
3/22/2023 09:17:24.160,-1.367,0.316,0.234
3/22/2023 09:17:24.170,-1.316,0.301,0.254
3/22/2023 09:17:24.180,-1.258,0.277,0.27
3/22/2023 09:17:24.190,-1.199,0.266,0.285
3/22/2023 09:17:24.200,-1.141,0.254,0.293
3/22/2023 09:17:24.210,-1.082,0.238,0.293
3/22/2023 09:17:24.220,-1.031,0.219,0.289
3/22/2023 09:17:24.230,-0.988,0.203,0.273
3/22/2023 09:17:24.240,-0.945,0.191,0.246
3/22/2023 09:17:24.250,-0.91,0.188,0.227
3/22/2023 09:17:24.260,-0.887,0.191,0.207
3/22/2023 09:17:24.270,-0.879,0.195,0.191
3/22/2023 09:17:24.280,-0.867,0.195,0.188
3/22/2023 09:17:24.290,-0.855,0.191,0.191
3/22/2023 09:17:24.300,-0.848,0.188,0.191
3/22/2023 09:17:24.310,-0.832,0.176,0.191
3/22/2023 09:17:24.320,-0.816,0.176,0.184
3/22/2023 09:17:24.330,-0.813,0.168,0.176
3/22/2023 09:17:24.340,-0.809,0.164,0.172
3/22/2023 09:17:24.350,-0.809,0.16,0.156
3/22/2023 09:17:24.360,-0.816,0.156,0.148
3/22/2023 09:17:24.370,-0.82,0.148,0.137
3/22/2023 09:17:24.380,-0.836,0.152,0.129
3/22/2023 09:17:24.390,-0.859,0.152,0.121
3/22/2023 09:17:24.400,-0.879,0.156,0.113
3/22/2023 09:17:24.410,-0.891,0.16,0.105
3/22/2023 09:17:24.420,-0.902,0.168,0.105
3/22/2023 09:17:24.430,-0.91,0.168,0.094
3/22/2023 09:17:24.440,-0.922,0.168,0.094
3/22/2023 09:17:24.450,-0.934,0.172,0.086
3/22/2023 09:17:24.460,-0.945,0.172,0.078
3/22/2023 09:17:24.470,-0.957,0.176,0.082
3/22/2023 09:17:24.480,-0.965,0.168,0.078
3/22/2023 09:17:24.490,-0.965,0.168,0.086
3/22/2023 09:17:24.500,-0.969,0.16,0.086
3/22/2023 09:17:24.510,-0.973,0.137,0.082
3/22/2023 09:17:24.520,-0.969,0.125,0.07
3/22/2023 09:17:24.530,-0.973,0.129,0.082
3/22/2023 09:17:24.540,-0.992,0.141,0.09
3/22/2023 09:17:24.550,-1.059,0.152,0.082
3/22/2023 09:17:24.560,-1.129,0.16,0.055
3/22/2023 09:17:24.570,-1.18,0.176,0.027
3/22/2023 09:17:24.580,-1.18,0.188,0.012
3/22/2023 09:17:24.590,-1.129,0.191,0.031
3/22/2023 09:17:24.600,-1.059,0.188,0.074
3/22/2023 09:17:24.610,-1.023,0.184,0.125
3/22/2023 09:17:24.620,-1.035,0.188,0.172
3/22/2023 09:17:24.630,-1.078,0.199,0.199
3/22/2023 09:17:24.640,-1.125,0.207,0.219
3/22/2023 09:17:24.650,-1.16,0.219,0.223
3/22/2023 09:17:24.660,-1.191,0.215,0.219
3/22/2023 09:17:24.670,-1.23,0.199,0.203
3/22/2023 09:17:24.680,-1.266,0.18,0.18
3/22/2023 09:17:24.690,-1.285,0.168,0.16
3/22/2023 09:17:24.700,-1.313,0.156,0.141
3/22/2023 09:17:24.710,-1.332,0.168,0.129
3/22/2023 09:17:24.720,-1.332,0.188,0.137
3/22/2023 09:17:24.730,-1.309,0.211,0.16
3/22/2023 09:17:24.740,-1.254,0.227,0.195
3/22/2023 09:17:24.750,-1.184,0.25,0.23
3/22/2023 09:17:24.760,-1.117,0.266,0.277
3/22/2023 09:17:24.770,-1.043,0.285,0.313
3/22/2023 09:17:24.780,-0.961,0.297,0.336
3/22/2023 09:17:24.790,-0.895,0.313,0.348
3/22/2023 09:17:24.800,-0.84,0.324,0.363
3/22/2023 09:17:24.810,-0.785,0.332,0.379
3/22/2023 09:17:24.820,-0.742,0.336,0.387
3/22/2023 09:17:24.830,-0.715,0.332,0.383
3/22/2023 09:17:24.840,-0.695,0.34,0.375
3/22/2023 09:17:24.850,-0.684,0.348,0.352
3/22/2023 09:17:24.860,-0.676,0.367,0.328
3/22/2023 09:17:24.870,-0.672,0.387,0.309
3/22/2023 09:17:24.880,-0.684,0.406,0.293
3/22/2023 09:17:24.890,-0.719,0.418,0.289
3/22/2023 09:17:24.900,-0.754,0.426,0.301
3/22/2023 09:17:24.910,-0.797,0.441,0.313
3/22/2023 09:17:24.920,-0.855,0.449,0.332
3/22/2023 09:17:24.930,-0.906,0.461,0.344
3/22/2023 09:17:24.940,-0.949,0.473,0.371
3/22/2023 09:17:24.950,-0.988,0.492,0.383
3/22/2023 09:17:24.960,-1.02,0.508,0.387
3/22/2023 09:17:24.970,-1.047,0.516,0.383
3/22/2023 09:17:24.980,-1.078,0.527,0.371
3/22/2023 09:17:24.990,-1.098,0.543,0.359
3/22/2023 09:17:25.000,-1.129,0.555,0.352
3/22/2023 09:17:25.010,-1.141,0.559,0.34
3/22/2023 09:17:25.020,-1.156,0.559,0.324
3/22/2023 09:17:25.030,-1.152,0.555,0.324
3/22/2023 09:17:25.040,-1.148,0.551,0.32
3/22/2023 09:17:25.050,-1.141,0.543,0.316
3/22/2023 09:17:25.060,-1.113,0.527,0.305
3/22/2023 09:17:25.070,-1.086,0.512,0.293
3/22/2023 09:17:25.080,-1.078,0.5,0.277
3/22/2023 09:17:25.090,-1.098,0.496,0.262
3/22/2023 09:17:25.100,-1.145,0.504,0.242
3/22/2023 09:17:25.110,-1.199,0.516,0.238
3/22/2023 09:17:25.120,-1.207,0.535,0.246
3/22/2023 09:17:25.130,-1.188,0.559,0.262
3/22/2023 09:17:25.140,-1.152,0.566,0.254
3/22/2023 09:17:25.150,-1.145,0.563,0.23
3/22/2023 09:17:25.160,-1.176,0.551,0.195
3/22/2023 09:17:25.170,-1.234,0.535,0.176
3/22/2023 09:17:25.180,-1.297,0.52,0.168
3/22/2023 09:17:25.190,-1.359,0.5,0.176
3/22/2023 09:17:25.200,-1.41,0.484,0.16
3/22/2023 09:17:25.210,-1.453,0.465,0.152
3/22/2023 09:17:25.220,-1.477,0.441,0.148
3/22/2023 09:17:25.230,-1.5,0.418,0.152
3/22/2023 09:17:25.240,-1.512,0.395,0.168
3/22/2023 09:17:25.250,-1.516,0.371,0.191
3/22/2023 09:17:25.260,-1.492,0.352,0.219
3/22/2023 09:17:25.270,-1.438,0.32,0.238
3/22/2023 09:17:25.280,-1.348,0.289,0.246
3/22/2023 09:17:25.290,-1.258,0.258,0.238
3/22/2023 09:17:25.300,-1.168,0.234,0.227
3/22/2023 09:17:25.310,-1.078,0.215,0.211
3/22/2023 09:17:25.320,-0.996,0.207,0.203
3/22/2023 09:17:25.330,-0.93,0.207,0.191
3/22/2023 09:17:25.340,-0.887,0.203,0.176
3/22/2023 09:17:25.350,-0.863,0.199,0.16
3/22/2023 09:17:25.360,-0.848,0.195,0.145
3/22/2023 09:17:25.370,-0.844,0.188,0.137
3/22/2023 09:17:25.380,-0.84,0.184,0.117
3/22/2023 09:17:25.390,-0.836,0.188,0.109
3/22/2023 09:17:25.400,-0.82,0.191,0.105
3/22/2023 09:17:25.410,-0.816,0.195,0.102
3/22/2023 09:17:25.420,-0.809,0.195,0.105
3/22/2023 09:17:25.430,-0.797,0.195,0.113
3/22/2023 09:17:25.440,-0.781,0.191,0.117
3/22/2023 09:17:25.450,-0.777,0.18,0.113
3/22/2023 09:17:25.460,-0.777,0.176,0.125
3/22/2023 09:17:25.470,-0.777,0.164,0.125
3/22/2023 09:17:25.480,-0.785,0.16,0.113
3/22/2023 09:17:25.490,-0.797,0.16,0.109
3/22/2023 09:17:25.500,-0.816,0.152,0.105
3/22/2023 09:17:25.510,-0.82,0.145,0.105
3/22/2023 09:17:25.520,-0.816,0.141,0.102
3/22/2023 09:17:25.530,-0.816,0.141,0.094
3/22/2023 09:17:25.540,-0.828,0.145,0.086
3/22/2023 09:17:25.550,-0.836,0.152,0.074
3/22/2023 09:17:25.560,-0.828,0.156,0.07
3/22/2023 09:17:25.570,-0.824,0.164,0.066
3/22/2023 09:17:25.580,-0.832,0.168,0.059
3/22/2023 09:17:25.590,-0.828,0.176,0.063
3/22/2023 09:17:25.600,-0.82,0.188,0.078
3/22/2023 09:17:25.610,-0.813,0.191,0.094
3/22/2023 09:17:25.620,-0.809,0.191,0.105
3/22/2023 09:17:25.630,-0.82,0.195,0.125
3/22/2023 09:17:25.640,-0.848,0.191,0.141
3/22/2023 09:17:25.650,-0.891,0.203,0.156
3/22/2023 09:17:25.660,-0.957,0.199,0.152
3/22/2023 09:17:25.670,-1.055,0.199,0.137
3/22/2023 09:17:25.680,-1.145,0.195,0.105
3/22/2023 09:17:25.690,-1.215,0.195,0.066
3/22/2023 09:17:25.700,-1.254,0.195,0.039
3/22/2023 09:17:25.710,-1.234,0.215,0.047
3/22/2023 09:17:25.720,-1.168,0.223,0.098
3/22/2023 09:17:25.730,-1.102,0.227,0.172
3/22/2023 09:17:25.740,-1.07,0.23,0.234
3/22/2023 09:17:25.750,-1.082,0.242,0.281
3/22/2023 09:17:25.760,-1.133,0.258,0.301
3/22/2023 09:17:25.770,-1.191,0.273,0.313
3/22/2023 09:17:25.780,-1.242,0.277,0.32
3/22/2023 09:17:25.790,-1.293,0.27,0.309
3/22/2023 09:17:25.800,-1.336,0.254,0.301
3/22/2023 09:17:25.810,-1.359,0.223,0.285
3/22/2023 09:17:25.820,-1.363,0.199,0.258
3/22/2023 09:17:25.830,-1.363,0.188,0.223
3/22/2023 09:17:25.840,-1.344,0.18,0.191
3/22/2023 09:17:25.850,-1.313,0.188,0.176
3/22/2023 09:17:25.860,-1.273,0.203,0.168
3/22/2023 09:17:25.870,-1.223,0.215,0.172
3/22/2023 09:17:25.880,-1.176,0.223,0.199
3/22/2023 09:17:25.890,-1.125,0.23,0.234
3/22/2023 09:17:25.900,-1.059,0.23,0.273
3/22/2023 09:17:25.910,-0.992,0.25,0.313
3/22/2023 09:17:25.920,-0.941,0.262,0.344
3/22/2023 09:17:25.930,-0.898,0.273,0.359
3/22/2023 09:17:25.940,-0.863,0.297,0.363
3/22/2023 09:17:25.950,-0.844,0.328,0.355
3/22/2023 09:17:25.960,-0.82,0.355,0.34
3/22/2023 09:17:25.970,-0.797,0.379,0.328
3/22/2023 09:17:25.980,-0.773,0.391,0.305
3/22/2023 09:17:25.990,-0.746,0.391,0.281
3/22/2023 09:17:26.000,-0.73,0.391,0.258
3/22/2023 09:17:26.010,-0.699,0.379,0.25
3/22/2023 09:17:26.020,-0.688,0.379,0.238
3/22/2023 09:17:26.030,-0.672,0.391,0.246
3/22/2023 09:17:26.040,-0.668,0.402,0.258
3/22/2023 09:17:26.050,-0.672,0.406,0.273
3/22/2023 09:17:26.060,-0.691,0.414,0.293
3/22/2023 09:17:26.070,-0.727,0.43,0.305
3/22/2023 09:17:26.080,-0.773,0.453,0.309
3/22/2023 09:17:26.090,-0.82,0.477,0.313
3/22/2023 09:17:26.100,-0.867,0.492,0.309
3/22/2023 09:17:26.110,-0.918,0.5,0.293
3/22/2023 09:17:26.120,-0.957,0.508,0.281
3/22/2023 09:17:26.130,-0.992,0.512,0.266
3/22/2023 09:17:26.140,-1.023,0.512,0.258
3/22/2023 09:17:26.150,-1.051,0.512,0.258
3/22/2023 09:17:26.160,-1.074,0.504,0.262
3/22/2023 09:17:26.170,-1.086,0.492,0.273
3/22/2023 09:17:26.180,-1.082,0.48,0.285
3/22/2023 09:17:26.190,-1.086,0.477,0.297
3/22/2023 09:17:26.200,-1.113,0.473,0.289
3/22/2023 09:17:26.210,-1.137,0.469,0.281
3/22/2023 09:17:26.220,-1.133,0.461,0.277
3/22/2023 09:17:26.230,-1.117,0.449,0.266
3/22/2023 09:17:26.240,-1.082,0.438,0.254
3/22/2023 09:17:26.250,-1.055,0.43,0.227
3/22/2023 09:17:26.260,-1.078,0.426,0.207
3/22/2023 09:17:26.270,-1.125,0.434,0.191
3/22/2023 09:17:26.280,-1.148,0.449,0.191
3/22/2023 09:17:26.290,-1.141,0.488,0.207
3/22/2023 09:17:26.300,-1.105,0.523,0.234
3/22/2023 09:17:26.310,-1.07,0.559,0.258
3/22/2023 09:17:26.320,-1.055,0.578,0.27
3/22/2023 09:17:26.330,-1.063,0.582,0.266
3/22/2023 09:17:26.340,-1.102,0.57,0.246
3/22/2023 09:17:26.350,-1.148,0.555,0.223
3/22/2023 09:17:26.360,-1.215,0.52,0.207
3/22/2023 09:17:26.370,-1.273,0.492,0.195
3/22/2023 09:17:26.380,-1.324,0.453,0.176
3/22/2023 09:17:26.390,-1.371,0.398,0.156
3/22/2023 09:17:26.400,-1.406,0.348,0.137
3/22/2023 09:17:26.410,-1.441,0.32,0.133
3/22/2023 09:17:26.420,-1.457,0.309,0.145
3/22/2023 09:17:26.430,-1.453,0.305,0.176
3/22/2023 09:17:26.440,-1.43,0.293,0.211
3/22/2023 09:17:26.450,-1.402,0.289,0.242
3/22/2023 09:17:26.460,-1.359,0.277,0.266
3/22/2023 09:17:26.470,-1.305,0.273,0.281
3/22/2023 09:17:26.480,-1.242,0.266,0.285
3/22/2023 09:17:26.490,-1.172,0.246,0.277
3/22/2023 09:17:26.500,-1.109,0.234,0.266
3/22/2023 09:17:26.510,-1.047,0.219,0.246
3/22/2023 09:17:26.520,-0.996,0.219,0.223
3/22/2023 09:17:26.530,-0.945,0.223,0.199
3/22/2023 09:17:26.540,-0.91,0.219,0.184
3/22/2023 09:17:26.550,-0.883,0.215,0.172
3/22/2023 09:17:26.560,-0.859,0.211,0.16
3/22/2023 09:17:26.570,-0.844,0.211,0.156
3/22/2023 09:17:26.580,-0.836,0.199,0.148
3/22/2023 09:17:26.590,-0.82,0.188,0.141
3/22/2023 09:17:26.600,-0.809,0.176,0.141
3/22/2023 09:17:26.610,-0.793,0.164,0.129
3/22/2023 09:17:26.620,-0.773,0.16,0.121
3/22/2023 09:17:26.630,-0.75,0.16,0.117
3/22/2023 09:17:26.640,-0.73,0.156,0.121
3/22/2023 09:17:26.650,-0.715,0.148,0.129
3/22/2023 09:17:26.660,-0.695,0.141,0.133
3/22/2023 09:17:26.670,-0.695,0.141,0.133
3/22/2023 09:17:26.680,-0.703,0.133,0.133
3/22/2023 09:17:26.690,-0.703,0.129,0.129
3/22/2023 09:17:26.700,-0.723,0.137,0.117
3/22/2023 09:17:26.710,-0.746,0.145,0.109
3/22/2023 09:17:26.720,-0.766,0.152,0.094
3/22/2023 09:17:26.730,-0.789,0.156,0.082
3/22/2023 09:17:26.740,-0.805,0.164,0.074
3/22/2023 09:17:26.750,-0.824,0.176,0.066
3/22/2023 09:17:26.760,-0.848,0.18,0.07
3/22/2023 09:17:26.770,-0.867,0.184,0.07
3/22/2023 09:17:26.780,-0.879,0.18,0.078
3/22/2023 09:17:26.790,-0.902,0.188,0.082
3/22/2023 09:17:26.800,-0.926,0.191,0.082
3/22/2023 09:17:26.810,-0.949,0.203,0.09
3/22/2023 09:17:26.820,-0.98,0.215,0.098
3/22/2023 09:17:26.830,-1.043,0.223,0.117
3/22/2023 09:17:26.840,-1.129,0.223,0.121
3/22/2023 09:17:26.850,-1.219,0.219,0.098
3/22/2023 09:17:26.860,-1.273,0.223,0.074
3/22/2023 09:17:26.870,-1.254,0.215,0.059
3/22/2023 09:17:26.880,-1.16,0.211,0.074
3/22/2023 09:17:26.890,-1.059,0.207,0.098
3/22/2023 09:17:26.900,-0.988,0.211,0.141
3/22/2023 09:17:26.910,-0.984,0.219,0.18
3/22/2023 09:17:26.920,-1.035,0.234,0.211
3/22/2023 09:17:26.930,-1.105,0.254,0.234
3/22/2023 09:17:26.940,-1.184,0.266,0.254
3/22/2023 09:17:26.950,-1.262,0.27,0.258
3/22/2023 09:17:26.960,-1.332,0.266,0.262
3/22/2023 09:17:26.970,-1.383,0.254,0.254
3/22/2023 09:17:26.980,-1.422,0.238,0.242
3/22/2023 09:17:26.990,-1.434,0.223,0.219
3/22/2023 09:17:27.000,-1.43,0.207,0.184
3/22/2023 09:17:27.010,-1.379,0.207,0.176
3/22/2023 09:17:27.020,-1.32,0.215,0.172
3/22/2023 09:17:27.030,-1.242,0.215,0.191
3/22/2023 09:17:27.040,-1.148,0.219,0.215
3/22/2023 09:17:27.050,-1.059,0.227,0.238
3/22/2023 09:17:27.060,-0.957,0.227,0.266
3/22/2023 09:17:27.070,-0.871,0.234,0.293
3/22/2023 09:17:27.080,-0.816,0.246,0.309
3/22/2023 09:17:27.090,-0.785,0.262,0.32
3/22/2023 09:17:27.100,-0.777,0.281,0.324
3/22/2023 09:17:27.110,-0.777,0.305,0.32
3/22/2023 09:17:27.120,-0.777,0.32,0.297
3/22/2023 09:17:27.130,-0.781,0.348,0.277
3/22/2023 09:17:27.140,-0.785,0.367,0.254
3/22/2023 09:17:27.150,-0.781,0.383,0.242
3/22/2023 09:17:27.160,-0.781,0.395,0.234
3/22/2023 09:17:27.170,-0.777,0.402,0.234
3/22/2023 09:17:27.180,-0.777,0.41,0.25
3/22/2023 09:17:27.190,-0.777,0.426,0.27
3/22/2023 09:17:27.200,-0.789,0.438,0.297
3/22/2023 09:17:27.210,-0.809,0.449,0.328
3/22/2023 09:17:27.220,-0.836,0.465,0.348
3/22/2023 09:17:27.230,-0.871,0.48,0.359
3/22/2023 09:17:27.240,-0.902,0.496,0.371
3/22/2023 09:17:27.250,-0.941,0.512,0.359
3/22/2023 09:17:27.260,-0.969,0.523,0.348
3/22/2023 09:17:27.270,-0.992,0.535,0.328
3/22/2023 09:17:27.280,-1.008,0.535,0.32
3/22/2023 09:17:27.290,-1.023,0.527,0.309
3/22/2023 09:17:27.300,-1.035,0.523,0.301
3/22/2023 09:17:27.310,-1.051,0.508,0.305
3/22/2023 09:17:27.320,-1.055,0.5,0.309
3/22/2023 09:17:27.330,-1.066,0.488,0.309
3/22/2023 09:17:27.340,-1.09,0.484,0.309
3/22/2023 09:17:27.350,-1.137,0.488,0.313
3/22/2023 09:17:27.360,-1.16,0.488,0.313
3/22/2023 09:17:27.370,-1.156,0.484,0.309
3/22/2023 09:17:27.380,-1.148,0.477,0.285
3/22/2023 09:17:27.390,-1.188,0.465,0.262
3/22/2023 09:17:27.400,-1.25,0.461,0.238
3/22/2023 09:17:27.410,-1.309,0.473,0.23
3/22/2023 09:17:27.420,-1.34,0.492,0.242
3/22/2023 09:17:27.430,-1.328,0.516,0.254
3/22/2023 09:17:27.440,-1.285,0.543,0.27
3/22/2023 09:17:27.450,-1.238,0.555,0.273
3/22/2023 09:17:27.460,-1.215,0.539,0.266
3/22/2023 09:17:27.470,-1.238,0.508,0.246
3/22/2023 09:17:27.480,-1.277,0.473,0.219
3/22/2023 09:17:27.490,-1.313,0.422,0.191
3/22/2023 09:17:27.500,-1.352,0.383,0.168
3/22/2023 09:17:27.510,-1.371,0.355,0.141
3/22/2023 09:17:27.520,-1.387,0.34,0.125
3/22/2023 09:17:27.530,-1.387,0.328,0.121
3/22/2023 09:17:27.540,-1.375,0.316,0.129
3/22/2023 09:17:27.550,-1.355,0.313,0.148
3/22/2023 09:17:27.560,-1.324,0.316,0.176
3/22/2023 09:17:27.570,-1.285,0.32,0.191
3/22/2023 09:17:27.580,-1.211,0.32,0.203
3/22/2023 09:17:27.590,-1.133,0.32,0.211
3/22/2023 09:17:27.600,-1.063,0.309,0.211
3/22/2023 09:17:27.610,-1,0.293,0.195
3/22/2023 09:17:27.620,-0.945,0.281,0.176
3/22/2023 09:17:27.630,-0.902,0.254,0.156
3/22/2023 09:17:27.640,-0.863,0.234,0.141
3/22/2023 09:17:27.650,-0.84,0.227,0.125
3/22/2023 09:17:27.660,-0.824,0.219,0.109
3/22/2023 09:17:27.670,-0.82,0.207,0.105
3/22/2023 09:17:27.680,-0.813,0.199,0.102
3/22/2023 09:17:27.690,-0.813,0.191,0.105
3/22/2023 09:17:27.700,-0.816,0.18,0.105
3/22/2023 09:17:27.710,-0.816,0.168,0.113
3/22/2023 09:17:27.720,-0.813,0.164,0.117
3/22/2023 09:17:27.730,-0.801,0.16,0.121
3/22/2023 09:17:27.740,-0.789,0.148,0.113
3/22/2023 09:17:27.750,-0.781,0.145,0.113
3/22/2023 09:17:27.760,-0.77,0.145,0.109
3/22/2023 09:17:27.770,-0.766,0.145,0.113
3/22/2023 09:17:27.780,-0.762,0.145,0.113
3/22/2023 09:17:27.790,-0.777,0.148,0.105
3/22/2023 09:17:27.800,-0.789,0.145,0.102
3/22/2023 09:17:27.810,-0.813,0.152,0.098
3/22/2023 09:17:27.820,-0.844,0.156,0.086
3/22/2023 09:17:27.830,-0.883,0.168,0.082
3/22/2023 09:17:27.840,-0.906,0.184,0.078
3/22/2023 09:17:27.850,-0.926,0.188,0.086
3/22/2023 09:17:27.860,-0.945,0.195,0.09
3/22/2023 09:17:27.870,-0.965,0.195,0.098
3/22/2023 09:17:27.880,-0.973,0.199,0.109
3/22/2023 09:17:27.890,-0.984,0.195,0.129
3/22/2023 09:17:27.900,-1,0.188,0.137
3/22/2023 09:17:27.910,-1.02,0.18,0.141
3/22/2023 09:17:27.920,-1.023,0.176,0.137
3/22/2023 09:17:27.930,-1.004,0.168,0.137
3/22/2023 09:17:27.940,-0.996,0.164,0.145
3/22/2023 09:17:27.950,-1.027,0.16,0.145
3/22/2023 09:17:27.960,-1.078,0.168,0.129
3/22/2023 09:17:27.970,-1.125,0.184,0.121
3/22/2023 09:17:27.980,-1.164,0.188,0.113
3/22/2023 09:17:27.990,-1.18,0.199,0.098
3/22/2023 09:17:28.000,-1.168,0.215,0.094
3/22/2023 09:17:28.010,-1.094,0.219,0.117
3/22/2023 09:17:28.020,-1.016,0.215,0.145
3/22/2023 09:17:28.030,-0.969,0.211,0.18
3/22/2023 09:17:28.040,-0.969,0.219,0.211
3/22/2023 09:17:28.050,-1,0.223,0.238
3/22/2023 09:17:28.060,-1.047,0.242,0.262
3/22/2023 09:17:28.070,-1.109,0.25,0.273
3/22/2023 09:17:28.080,-1.168,0.258,0.266
3/22/2023 09:17:28.090,-1.223,0.242,0.258
3/22/2023 09:17:28.100,-1.258,0.23,0.246
3/22/2023 09:17:28.110,-1.273,0.215,0.223
3/22/2023 09:17:28.120,-1.273,0.207,0.195
3/22/2023 09:17:28.130,-1.254,0.207,0.184
3/22/2023 09:17:28.140,-1.215,0.223,0.18
3/22/2023 09:17:28.150,-1.168,0.227,0.195
3/22/2023 09:17:28.160,-1.102,0.23,0.227
3/22/2023 09:17:28.170,-1.027,0.227,0.258
3/22/2023 09:17:28.180,-0.949,0.219,0.293
3/22/2023 09:17:28.190,-0.883,0.223,0.328
3/22/2023 09:17:28.200,-0.832,0.219,0.352
3/22/2023 09:17:28.210,-0.801,0.227,0.363
3/22/2023 09:17:28.220,-0.789,0.238,0.375
3/22/2023 09:17:28.230,-0.781,0.258,0.367
3/22/2023 09:17:28.240,-0.777,0.277,0.359
3/22/2023 09:17:28.250,-0.77,0.309,0.348
3/22/2023 09:17:28.260,-0.758,0.344,0.32
3/22/2023 09:17:28.270,-0.742,0.375,0.305
3/22/2023 09:17:28.280,-0.73,0.398,0.285
3/22/2023 09:17:28.290,-0.723,0.41,0.273
3/22/2023 09:17:28.300,-0.719,0.414,0.27
3/22/2023 09:17:28.310,-0.719,0.41,0.273
3/22/2023 09:17:28.320,-0.723,0.41,0.281
3/22/2023 09:17:28.330,-0.742,0.41,0.297
3/22/2023 09:17:28.340,-0.773,0.418,0.32
3/22/2023 09:17:28.350,-0.816,0.441,0.328
3/22/2023 09:17:28.360,-0.887,0.461,0.328
3/22/2023 09:17:28.370,-0.965,0.48,0.324
3/22/2023 09:17:28.380,-1.031,0.492,0.32
3/22/2023 09:17:28.390,-1.078,0.5,0.313
3/22/2023 09:17:28.400,-1.102,0.5,0.305
3/22/2023 09:17:28.410,-1.113,0.488,0.293
3/22/2023 09:17:28.420,-1.117,0.48,0.285
3/22/2023 09:17:28.430,-1.121,0.473,0.277
3/22/2023 09:17:28.440,-1.125,0.477,0.277
3/22/2023 09:17:28.450,-1.137,0.48,0.285
3/22/2023 09:17:28.460,-1.148,0.496,0.301
3/22/2023 09:17:28.470,-1.164,0.512,0.328
3/22/2023 09:17:28.480,-1.172,0.516,0.34
3/22/2023 09:17:28.490,-1.148,0.508,0.344
3/22/2023 09:17:28.500,-1.137,0.484,0.332
3/22/2023 09:17:28.510,-1.152,0.465,0.316
3/22/2023 09:17:28.520,-1.203,0.453,0.289
3/22/2023 09:17:28.530,-1.258,0.457,0.266
3/22/2023 09:17:28.540,-1.27,0.48,0.266
3/22/2023 09:17:28.550,-1.238,0.504,0.281
3/22/2023 09:17:28.560,-1.184,0.531,0.301
3/22/2023 09:17:28.570,-1.133,0.539,0.305
3/22/2023 09:17:28.580,-1.098,0.531,0.297
3/22/2023 09:17:28.590,-1.09,0.516,0.273
3/22/2023 09:17:28.600,-1.117,0.488,0.242
3/22/2023 09:17:28.610,-1.164,0.461,0.227
3/22/2023 09:17:28.620,-1.219,0.434,0.215
3/22/2023 09:17:28.630,-1.27,0.414,0.211
3/22/2023 09:17:28.640,-1.32,0.398,0.211
3/22/2023 09:17:28.650,-1.367,0.383,0.211
3/22/2023 09:17:28.660,-1.395,0.363,0.211
3/22/2023 09:17:28.670,-1.402,0.344,0.219
3/22/2023 09:17:28.680,-1.379,0.336,0.23
3/22/2023 09:17:28.690,-1.332,0.324,0.254
