------------ Data File Created By ActiGraph GT3X+ ActiLife v6.13.4 Firmware v1.7.2 date format M/d/yyyy at 100 Hz  Filter Normal -----------
Serial Number: TAS1H50200609
Start Time 12:04:00
Start Date 3/24/2023
Epoch Period (hh:mm:ss) 00:00:00
Download Time 12:18:23
Download Date 3/24/2023
Current Memory Address: 0
Current Battery Voltage: 4.18     Mode = 12
--------------------------------------------------
Timestamp,Accelerometer X,Accelerometer Y,Accelerometer Z
3/24/2023 12:04:00.000,-0.664,-1.172,0.23
3/24/2023 12:04:00.010,-0.676,-0.984,0.172
3/24/2023 12:04:00.020,-0.672,-0.848,0.113
3/24/2023 12:04:00.030,-0.637,-0.809,0.039
3/24/2023 12:04:00.040,-0.59,-0.859,0.039
3/24/2023 12:04:00.050,-0.527,-0.926,0.125
3/24/2023 12:04:00.060,-0.449,-0.961,0.227
3/24/2023 12:04:00.070,-0.398,-0.93,0.266
3/24/2023 12:04:00.080,-0.371,-0.898,0.277
3/24/2023 12:04:00.090,-0.367,-0.895,0.254
3/24/2023 12:04:00.100,-0.375,-0.895,0.223
3/24/2023 12:04:00.110,-0.375,-0.906,0.223
3/24/2023 12:04:00.120,-0.367,-0.934,0.211
3/24/2023 12:04:00.130,-0.336,-0.941,0.188
3/24/2023 12:04:00.140,-0.277,-0.941,0.188
3/24/2023 12:04:00.150,-0.207,-0.941,0.191
3/24/2023 12:04:00.160,-0.16,-0.922,0.188
3/24/2023 12:04:00.170,-0.133,-0.887,0.172
3/24/2023 12:04:00.180,-0.125,-0.84,0.145
3/24/2023 12:04:00.190,-0.137,-0.797,0.113
3/24/2023 12:04:00.200,-0.172,-0.762,0.09
3/24/2023 12:04:00.210,-0.215,-0.727,0.063
3/24/2023 12:04:00.220,-0.25,-0.691,0.039
3/24/2023 12:04:00.230,-0.27,-0.664,0.023
3/24/2023 12:04:00.240,-0.27,-0.629,0.004
3/24/2023 12:04:00.250,-0.246,-0.582,-0.004
3/24/2023 12:04:00.260,-0.199,-0.539,-0.008
3/24/2023 12:04:00.270,-0.148,-0.496,-0.012
3/24/2023 12:04:00.280,-0.125,-0.465,-0.027
3/24/2023 12:04:00.290,-0.082,-0.512,-0.016
3/24/2023 12:04:00.300,-0.031,-0.582,-0.004
3/24/2023 12:04:00.310,0.004,-0.625,0.016
3/24/2023 12:04:00.320,0.016,-0.66,0.031
3/24/2023 12:04:00.330,0.039,-0.688,0.016
3/24/2023 12:04:00.340,0.078,-0.715,0.02
3/24/2023 12:04:00.350,0.137,-0.703,-0.008
3/24/2023 12:04:00.360,0.223,-0.707,0.094
3/24/2023 12:04:00.370,0.27,-0.77,0.164
3/24/2023 12:04:00.380,0.199,-0.781,0.035
3/24/2023 12:04:00.390,0.121,-0.871,0.035
3/24/2023 12:04:00.400,0.082,-0.98,0.109
3/24/2023 12:04:00.410,0.047,-1.051,0.125
3/24/2023 12:04:00.420,0.031,-1.094,0.066
3/24/2023 12:04:00.430,0.109,-1.121,0.008
3/24/2023 12:04:00.440,0.266,-1.172,-0.008
3/24/2023 12:04:00.450,0.465,-1.27,-0.012
3/24/2023 12:04:00.460,0.66,-1.379,-0.02
3/24/2023 12:04:00.470,0.793,-1.461,-0.035
3/24/2023 12:04:00.480,0.836,-1.496,-0.078
3/24/2023 12:04:00.490,0.777,-1.496,-0.086
3/24/2023 12:04:00.500,0.66,-1.535,-0.082
3/24/2023 12:04:00.510,0.586,-1.609,-0.082
3/24/2023 12:04:00.520,0.473,-1.676,-0.094
3/24/2023 12:04:00.530,0.313,-1.695,-0.078
3/24/2023 12:04:00.540,0.066,-1.672,0.012
3/24/2023 12:04:00.550,-0.281,-1.66,0.074
3/24/2023 12:04:00.560,-0.633,-1.598,0.008
3/24/2023 12:04:00.570,-0.902,-1.379,-0.113
3/24/2023 12:04:00.580,-1.023,-1.047,-0.23
3/24/2023 12:04:00.590,-1.039,-0.781,-0.301
3/24/2023 12:04:00.600,-0.965,-0.707,-0.266
3/24/2023 12:04:00.610,-0.848,-0.773,-0.184
3/24/2023 12:04:00.620,-0.707,-0.926,-0.098
3/24/2023 12:04:00.630,-0.582,-1.117,-0.031
3/24/2023 12:04:00.640,-0.488,-1.277,0.008
3/24/2023 12:04:00.650,-0.402,-1.41,0.039
3/24/2023 12:04:00.660,-0.324,-1.5,0.047
3/24/2023 12:04:00.670,-0.242,-1.586,0.051
3/24/2023 12:04:00.680,-0.168,-1.625,0.074
3/24/2023 12:04:00.690,-0.141,-1.543,0.063
3/24/2023 12:04:00.700,-0.129,-1.352,-0.008
3/24/2023 12:04:00.710,-0.086,-1.141,-0.051
3/24/2023 12:04:00.720,-0.031,-1,-0.043
3/24/2023 12:04:00.730,0.004,-0.906,-0.039
3/24/2023 12:04:00.740,0.035,-0.844,-0.039
3/24/2023 12:04:00.750,0.078,-0.785,-0.031
3/24/2023 12:04:00.760,0.129,-0.746,-0.016
3/24/2023 12:04:00.770,0.172,-0.715,0.016
3/24/2023 12:04:00.780,0.199,-0.641,0.027
3/24/2023 12:04:00.790,0.188,-0.527,0.016
3/24/2023 12:04:00.800,0.156,-0.398,0.008
3/24/2023 12:04:00.810,0.117,-0.262,0.039
3/24/2023 12:04:00.820,0.09,-0.141,0.094
3/24/2023 12:04:00.830,0.059,-0.035,0.129
3/24/2023 12:04:00.840,0.059,0.039,0.145
3/24/2023 12:04:00.850,0.078,0.047,0.172
3/24/2023 12:04:00.860,0.086,-0.016,0.195
3/24/2023 12:04:00.870,0.07,-0.168,0.223
3/24/2023 12:04:00.880,0.055,-0.328,0.219
3/24/2023 12:04:00.890,0.051,-0.484,0.199
3/24/2023 12:04:00.900,0.059,-0.645,0.141
3/24/2023 12:04:00.910,0.086,-0.809,0.102
3/24/2023 12:04:00.920,0.121,-0.996,0.148
3/24/2023 12:04:00.930,0.102,-1.09,0.094
3/24/2023 12:04:00.940,0.086,-1.129,0
3/24/2023 12:04:00.950,0.07,-1.223,-0.078
3/24/2023 12:04:00.960,0.078,-1.469,-0.039
3/24/2023 12:04:00.970,0.102,-1.684,0.008
3/24/2023 12:04:00.980,0.117,-1.738,0.008
3/24/2023 12:04:00.990,0.172,-1.738,0.066
3/24/2023 12:04:01.000,0.289,-1.68,0.145
3/24/2023 12:04:01.010,0.469,-1.555,0.211
3/24/2023 12:04:01.020,0.617,-1.449,0.305
3/24/2023 12:04:01.030,0.609,-1.441,0.43
3/24/2023 12:04:01.040,0.43,-1.531,0.434
3/24/2023 12:04:01.050,0.152,-1.656,0.246
3/24/2023 12:04:01.060,-0.105,-1.789,-0.043
3/24/2023 12:04:01.070,-0.23,-1.801,-0.078
3/24/2023 12:04:01.080,-0.324,-1.66,0.191
3/24/2023 12:04:01.090,-0.445,-1.336,0.262
3/24/2023 12:04:01.100,-0.457,-0.98,0.16
3/24/2023 12:04:01.110,-0.48,-0.844,0.113
3/24/2023 12:04:01.120,-0.527,-0.848,0.051
3/24/2023 12:04:01.130,-0.488,-0.949,0.094
3/24/2023 12:04:01.140,-0.406,-1.035,0.156
3/24/2023 12:04:01.150,-0.32,-1.074,0.262
3/24/2023 12:04:01.160,-0.234,-1.047,0.34
3/24/2023 12:04:01.170,-0.191,-0.992,0.34
3/24/2023 12:04:01.180,-0.18,-0.93,0.289
3/24/2023 12:04:01.190,-0.199,-0.902,0.254
3/24/2023 12:04:01.200,-0.238,-0.898,0.227
3/24/2023 12:04:01.210,-0.27,-0.906,0.199
3/24/2023 12:04:01.220,-0.266,-0.926,0.18
3/24/2023 12:04:01.230,-0.234,-0.926,0.164
3/24/2023 12:04:01.240,-0.195,-0.914,0.152
3/24/2023 12:04:01.250,-0.176,-0.859,0.145
3/24/2023 12:04:01.260,-0.176,-0.789,0.129
3/24/2023 12:04:01.270,-0.184,-0.699,0.102
3/24/2023 12:04:01.280,-0.199,-0.617,0.074
3/24/2023 12:04:01.290,-0.23,-0.547,0.043
3/24/2023 12:04:01.300,-0.25,-0.508,0.016
3/24/2023 12:04:01.310,-0.238,-0.484,0.02
3/24/2023 12:04:01.320,-0.227,-0.477,0.012
3/24/2023 12:04:01.330,-0.203,-0.461,0.008
3/24/2023 12:04:01.340,-0.172,-0.449,-0.004
3/24/2023 12:04:01.350,-0.133,-0.465,-0.02
3/24/2023 12:04:01.360,-0.086,-0.516,-0.023
3/24/2023 12:04:01.370,-0.02,-0.57,-0.012
3/24/2023 12:04:01.380,0.016,-0.621,-0.012
3/24/2023 12:04:01.390,0.055,-0.648,0
3/24/2023 12:04:01.400,0.102,-0.656,0.016
3/24/2023 12:04:01.410,0.133,-0.652,0.031
3/24/2023 12:04:01.420,0.145,-0.66,0.035
3/24/2023 12:04:01.430,0.125,-0.715,0.109
3/24/2023 12:04:01.440,0.066,-0.785,0.121
3/24/2023 12:04:01.450,-0.02,-0.863,0.121
3/24/2023 12:04:01.460,-0.078,-0.941,0.066
3/24/2023 12:04:01.470,-0.066,-1.008,0.004
3/24/2023 12:04:01.480,0.012,-1.082,0.004
3/24/2023 12:04:01.490,0.156,-1.152,0.031
3/24/2023 12:04:01.500,0.309,-1.227,0.035
3/24/2023 12:04:01.510,0.504,-1.289,0.035
3/24/2023 12:04:01.520,0.715,-1.34,0.027
3/24/2023 12:04:01.530,0.871,-1.406,-0.012
3/24/2023 12:04:01.540,0.902,-1.461,-0.078
3/24/2023 12:04:01.550,0.828,-1.5,-0.102
3/24/2023 12:04:01.560,0.652,-1.512,-0.082
3/24/2023 12:04:01.570,0.52,-1.527,-0.055
3/24/2023 12:04:01.580,0.445,-1.555,-0.027
3/24/2023 12:04:01.590,0.293,-1.59,-0.008
3/24/2023 12:04:01.600,0.082,-1.59,0.016
3/24/2023 12:04:01.610,-0.223,-1.551,0.027
3/24/2023 12:04:01.620,-0.555,-1.449,0
3/24/2023 12:04:01.630,-0.813,-1.254,-0.07
3/24/2023 12:04:01.640,-0.965,-1.012,-0.227
3/24/2023 12:04:01.650,-1.012,-0.863,-0.301
3/24/2023 12:04:01.660,-0.973,-0.914,-0.219
3/24/2023 12:04:01.670,-0.918,-1.078,-0.137
3/24/2023 12:04:01.680,-0.848,-1.281,-0.09
3/24/2023 12:04:01.690,-0.75,-1.465,-0.02
3/24/2023 12:04:01.700,-0.656,-1.594,0.039
3/24/2023 12:04:01.710,-0.566,-1.66,0.055
3/24/2023 12:04:01.720,-0.469,-1.656,0.047
3/24/2023 12:04:01.730,-0.336,-1.602,0.055
3/24/2023 12:04:01.740,-0.215,-1.504,0.047
3/24/2023 12:04:01.750,-0.129,-1.344,0.031
3/24/2023 12:04:01.760,-0.043,-1.176,0.023
3/24/2023 12:04:01.770,0.031,-1.039,0.02
3/24/2023 12:04:01.780,0.074,-0.941,-0.016
3/24/2023 12:04:01.790,0.086,-0.863,-0.063
3/24/2023 12:04:01.800,0.094,-0.816,-0.035
3/24/2023 12:04:01.810,0.129,-0.773,0.008
3/24/2023 12:04:01.820,0.156,-0.664,0.012
3/24/2023 12:04:01.830,0.16,-0.496,-0.035
3/24/2023 12:04:01.840,0.168,-0.344,-0.035
3/24/2023 12:04:01.850,0.168,-0.211,0.004
3/24/2023 12:04:01.860,0.141,-0.098,0.051
3/24/2023 12:04:01.870,0.105,-0.02,0.086
3/24/2023 12:04:01.880,0.074,0.02,0.105
3/24/2023 12:04:01.890,0.078,0.008,0.117
3/24/2023 12:04:01.900,0.09,-0.063,0.129
3/24/2023 12:04:01.910,0.113,-0.172,0.152
3/24/2023 12:04:01.920,0.148,-0.289,0.18
3/24/2023 12:04:01.930,0.199,-0.422,0.242
3/24/2023 12:04:01.940,0.23,-0.539,0.227
3/24/2023 12:04:01.950,0.246,-0.625,0.164
3/24/2023 12:04:01.960,0.27,-0.715,0.125
3/24/2023 12:04:01.970,0.297,-0.84,0.152
3/24/2023 12:04:01.980,0.301,-0.984,0.219
3/24/2023 12:04:01.990,0.238,-1.113,0.164
3/24/2023 12:04:02.000,0.098,-1.285,0.09
3/24/2023 12:04:02.010,-0.039,-1.496,0.035
3/24/2023 12:04:02.020,-0.129,-1.672,0.031
3/24/2023 12:04:02.030,-0.191,-1.734,-0.012
3/24/2023 12:04:02.040,-0.152,-1.734,0.008
3/24/2023 12:04:02.050,0.031,-1.672,0.082
3/24/2023 12:04:02.060,0.313,-1.543,0.195
3/24/2023 12:04:02.070,0.535,-1.48,0.418
3/24/2023 12:04:02.080,0.527,-1.512,0.5
3/24/2023 12:04:02.090,0.355,-1.598,0.395
3/24/2023 12:04:02.100,0.086,-1.773,0.035
3/24/2023 12:04:02.110,-0.125,-1.926,-0.23
3/24/2023 12:04:02.120,-0.168,-1.992,-0.012
3/24/2023 12:04:02.130,-0.324,-1.711,0.16
3/24/2023 12:04:02.140,-0.332,-1.238,0.207
3/24/2023 12:04:02.150,-0.301,-0.969,0.148
3/24/2023 12:04:02.160,-0.301,-0.891,0.148
3/24/2023 12:04:02.170,-0.32,-0.906,0.188
3/24/2023 12:04:02.180,-0.344,-0.953,0.211
3/24/2023 12:04:02.190,-0.352,-0.988,0.25
3/24/2023 12:04:02.200,-0.355,-0.961,0.254
3/24/2023 12:04:02.210,-0.348,-0.926,0.234
3/24/2023 12:04:02.220,-0.34,-0.934,0.227
3/24/2023 12:04:02.230,-0.32,-0.949,0.207
3/24/2023 12:04:02.240,-0.32,-0.973,0.172
3/24/2023 12:04:02.250,-0.32,-0.988,0.148
3/24/2023 12:04:02.260,-0.305,-0.996,0.148
3/24/2023 12:04:02.270,-0.266,-0.988,0.152
3/24/2023 12:04:02.280,-0.215,-0.973,0.148
3/24/2023 12:04:02.290,-0.164,-0.926,0.137
3/24/2023 12:04:02.300,-0.137,-0.844,0.121
3/24/2023 12:04:02.310,-0.133,-0.754,0.109
3/24/2023 12:04:02.320,-0.152,-0.676,0.094
3/24/2023 12:04:02.330,-0.164,-0.59,0.078
3/24/2023 12:04:02.340,-0.176,-0.52,0.059
3/24/2023 12:04:02.350,-0.176,-0.473,0.043
3/24/2023 12:04:02.360,-0.164,-0.453,0.027
3/24/2023 12:04:02.370,-0.145,-0.441,0.023
3/24/2023 12:04:02.380,-0.121,-0.438,0.008
3/24/2023 12:04:02.390,-0.098,-0.465,0
3/24/2023 12:04:02.400,-0.07,-0.508,-0.004
3/24/2023 12:04:02.410,-0.039,-0.555,-0.008
3/24/2023 12:04:02.420,-0.004,-0.586,0.023
3/24/2023 12:04:02.430,0.023,-0.586,0.039
3/24/2023 12:04:02.440,0.043,-0.582,0.043
3/24/2023 12:04:02.450,0.051,-0.57,0.031
3/24/2023 12:04:02.460,0.051,-0.586,0.031
3/24/2023 12:04:02.470,0.051,-0.656,0.055
3/24/2023 12:04:02.480,0.043,-0.723,0.02
3/24/2023 12:04:02.490,0.02,-0.797,0.043
3/24/2023 12:04:02.500,-0.035,-0.918,0.109
3/24/2023 12:04:02.510,-0.074,-0.988,0.059
3/24/2023 12:04:02.520,-0.078,-1.059,0.051
3/24/2023 12:04:02.530,-0.016,-1.105,0.035
3/24/2023 12:04:02.540,0.152,-1.113,0.031
3/24/2023 12:04:02.550,0.367,-1.145,0.043
3/24/2023 12:04:02.560,0.594,-1.25,0.055
3/24/2023 12:04:02.570,0.785,-1.387,0.031
3/24/2023 12:04:02.580,0.895,-1.488,-0.016
3/24/2023 12:04:02.590,0.887,-1.539,-0.07
3/24/2023 12:04:02.600,0.766,-1.535,-0.078
3/24/2023 12:04:02.610,0.621,-1.52,-0.078
3/24/2023 12:04:02.620,0.559,-1.523,-0.066
3/24/2023 12:04:02.630,0.449,-1.555,-0.055
3/24/2023 12:04:02.640,0.266,-1.582,-0.063
3/24/2023 12:04:02.650,0.016,-1.586,-0.012
3/24/2023 12:04:02.660,-0.324,-1.621,0.047
3/24/2023 12:04:02.670,-0.676,-1.609,0.012
3/24/2023 12:04:02.680,-0.969,-1.414,-0.102
3/24/2023 12:04:02.690,-1.137,-1.051,-0.25
3/24/2023 12:04:02.700,-1.156,-0.816,-0.352
3/24/2023 12:04:02.710,-1.129,-0.563,-0.422
3/24/2023 12:04:02.720,-0.914,-0.781,-0.242
3/24/2023 12:04:02.730,-0.68,-1.152,-0.047
3/24/2023 12:04:02.740,-0.5,-1.422,0.035
3/24/2023 12:04:02.750,-0.395,-1.508,0.023
3/24/2023 12:04:02.760,-0.32,-1.586,0.027
3/24/2023 12:04:02.770,-0.277,-1.637,0.02
3/24/2023 12:04:02.780,-0.238,-1.59,0.004
3/24/2023 12:04:02.790,-0.172,-1.574,0.02
3/24/2023 12:04:02.800,-0.172,-1.418,-0.027
3/24/2023 12:04:02.810,-0.164,-1.117,-0.094
3/24/2023 12:04:02.820,-0.113,-0.98,-0.027
3/24/2023 12:04:02.830,-0.066,-0.941,0.027
3/24/2023 12:04:02.840,-0.051,-0.871,0.023
3/24/2023 12:04:02.850,-0.023,-0.781,-0.023
3/24/2023 12:04:02.860,0.043,-0.699,-0.043
3/24/2023 12:04:02.870,0.137,-0.645,-0.027
3/24/2023 12:04:02.880,0.223,-0.594,-0.02
3/24/2023 12:04:02.890,0.281,-0.535,-0.004
3/24/2023 12:04:02.900,0.305,-0.453,0.027
3/24/2023 12:04:02.910,0.305,-0.336,0.059
3/24/2023 12:04:02.920,0.277,-0.23,0.102
3/24/2023 12:04:02.930,0.23,-0.145,0.129
3/24/2023 12:04:02.940,0.184,-0.078,0.137
3/24/2023 12:04:02.950,0.133,-0.063,0.137
3/24/2023 12:04:02.960,0.094,-0.094,0.133
3/24/2023 12:04:02.970,0.074,-0.168,0.133
3/24/2023 12:04:02.980,0.078,-0.27,0.168
3/24/2023 12:04:02.990,0.094,-0.441,0.281
3/24/2023 12:04:03.000,0.07,-0.633,0.285
3/24/2023 12:04:03.010,0.051,-0.766,0.199
3/24/2023 12:04:03.020,0.082,-0.859,0.164
3/24/2023 12:04:03.030,0.121,-0.945,0.199
3/24/2023 12:04:03.040,0.133,-1.016,0.16
3/24/2023 12:04:03.050,0.141,-1.121,0.086
3/24/2023 12:04:03.060,0.105,-1.309,0.027
3/24/2023 12:04:03.070,0.066,-1.535,0.027
3/24/2023 12:04:03.080,0.02,-1.73,0.023
3/24/2023 12:04:03.090,-0.059,-1.859,-0.016
3/24/2023 12:04:03.100,-0.027,-1.949,0.016
3/24/2023 12:04:03.110,0.117,-1.941,0.184
3/24/2023 12:04:03.120,0.199,-1.863,0.332
3/24/2023 12:04:03.130,0.105,-1.824,0.371
3/24/2023 12:04:03.140,-0.086,-1.871,0.223
3/24/2023 12:04:03.150,-0.207,-1.965,-0.004
3/24/2023 12:04:03.160,-0.148,-1.934,-0.059
3/24/2023 12:04:03.170,-0.113,-1.664,0.168
3/24/2023 12:04:03.180,-0.121,-1.23,0.34
3/24/2023 12:04:03.190,-0.086,-0.809,0.379
3/24/2023 12:04:03.200,-0.063,-0.559,0.398
3/24/2023 12:04:03.210,-0.133,-0.488,0.375
3/24/2023 12:04:03.220,-0.207,-0.625,0.363
3/24/2023 12:04:03.230,-0.32,-0.902,0.297
3/24/2023 12:04:03.240,-0.473,-1.176,0.156
3/24/2023 12:04:03.250,-0.578,-1.426,0.066
3/24/2023 12:04:03.260,-0.563,-1.535,0.023
3/24/2023 12:04:03.270,-0.48,-1.395,0.031
3/24/2023 12:04:03.280,-0.387,-1.145,0.094
3/24/2023 12:04:03.290,-0.305,-0.941,0.16
3/24/2023 12:04:03.300,-0.23,-0.785,0.203
3/24/2023 12:04:03.310,-0.152,-0.684,0.238
3/24/2023 12:04:03.320,-0.094,-0.629,0.223
3/24/2023 12:04:03.330,-0.055,-0.613,0.184
3/24/2023 12:04:03.340,-0.047,-0.621,0.141
3/24/2023 12:04:03.350,-0.07,-0.633,0.102
3/24/2023 12:04:03.360,-0.133,-0.656,0.078
3/24/2023 12:04:03.370,-0.195,-0.672,0.055
3/24/2023 12:04:03.380,-0.258,-0.66,0.031
3/24/2023 12:04:03.390,-0.281,-0.621,0.027
3/24/2023 12:04:03.400,-0.277,-0.551,0.023
3/24/2023 12:04:03.410,-0.238,-0.465,0.02
3/24/2023 12:04:03.420,-0.164,-0.406,0.02
3/24/2023 12:04:03.430,-0.094,-0.379,0.004
3/24/2023 12:04:03.440,-0.035,-0.395,-0.008
3/24/2023 12:04:03.450,0.02,-0.438,-0.004
3/24/2023 12:04:03.460,0.051,-0.504,-0.008
3/24/2023 12:04:03.470,0.07,-0.605,0.012
3/24/2023 12:04:03.480,0.098,-0.691,0.02
3/24/2023 12:04:03.490,0.082,-0.715,0.012
3/24/2023 12:04:03.500,0.035,-0.719,0.012
3/24/2023 12:04:03.510,-0.027,-0.754,0.051
3/24/2023 12:04:03.520,-0.086,-0.809,0.02
3/24/2023 12:04:03.530,-0.109,-0.859,0.016
3/24/2023 12:04:03.540,-0.113,-0.926,0.023
3/24/2023 12:04:03.550,-0.078,-1.004,0.031
3/24/2023 12:04:03.560,-0.008,-1.082,0.02
3/24/2023 12:04:03.570,0.18,-1.168,-0.012
3/24/2023 12:04:03.580,0.426,-1.238,-0.016
3/24/2023 12:04:03.590,0.656,-1.266,-0.031
3/24/2023 12:04:03.600,0.855,-1.316,-0.031
3/24/2023 12:04:03.610,0.965,-1.438,-0.043
3/24/2023 12:04:03.620,0.934,-1.531,-0.086
3/24/2023 12:04:03.630,0.762,-1.559,-0.09
3/24/2023 12:04:03.640,0.563,-1.551,-0.09
3/24/2023 12:04:03.650,0.445,-1.555,-0.102
3/24/2023 12:04:03.660,0.344,-1.594,-0.082
3/24/2023 12:04:03.670,0.199,-1.629,-0.035
3/24/2023 12:04:03.680,-0.012,-1.633,0.051
3/24/2023 12:04:03.690,-0.297,-1.598,0.094
3/24/2023 12:04:03.700,-0.598,-1.469,0.086
3/24/2023 12:04:03.710,-0.852,-1.234,-0.012
3/24/2023 12:04:03.720,-1.016,-0.98,-0.156
3/24/2023 12:04:03.730,-1.035,-0.844,-0.203
3/24/2023 12:04:03.740,-0.938,-0.895,-0.129
3/24/2023 12:04:03.750,-0.77,-1.039,0.004
3/24/2023 12:04:03.760,-0.598,-1.145,0.082
3/24/2023 12:04:03.770,-0.457,-1.254,0.113
3/24/2023 12:04:03.780,-0.367,-1.379,0.133
3/24/2023 12:04:03.790,-0.32,-1.508,0.141
3/24/2023 12:04:03.800,-0.309,-1.621,0.113
3/24/2023 12:04:03.810,-0.301,-1.637,0.074
3/24/2023 12:04:03.820,-0.289,-1.539,0.016
3/24/2023 12:04:03.830,-0.254,-1.355,-0.027
3/24/2023 12:04:03.840,-0.203,-1.148,-0.039
3/24/2023 12:04:03.850,-0.145,-0.961,-0.027
3/24/2023 12:04:03.860,-0.098,-0.875,0.008
3/24/2023 12:04:03.870,-0.035,-0.848,0.035
3/24/2023 12:04:03.880,0.027,-0.777,0.023
3/24/2023 12:04:03.890,0.09,-0.684,0.02
3/24/2023 12:04:03.900,0.164,-0.613,0.027
3/24/2023 12:04:03.910,0.211,-0.543,0.047
3/24/2023 12:04:03.920,0.219,-0.453,0.051
3/24/2023 12:04:03.930,0.199,-0.359,0.055
3/24/2023 12:04:03.940,0.16,-0.27,0.078
3/24/2023 12:04:03.950,0.117,-0.184,0.105
3/24/2023 12:04:03.960,0.063,-0.113,0.121
3/24/2023 12:04:03.970,0.02,-0.082,0.125
3/24/2023 12:04:03.980,0.008,-0.082,0.125
3/24/2023 12:04:03.990,0.027,-0.133,0.145
3/24/2023 12:04:04.000,0.07,-0.23,0.168
3/24/2023 12:04:04.010,0.129,-0.348,0.211
3/24/2023 12:04:04.020,0.18,-0.473,0.23
3/24/2023 12:04:04.030,0.211,-0.566,0.188
3/24/2023 12:04:04.040,0.262,-0.637,0.137
3/24/2023 12:04:04.050,0.313,-0.723,0.102
3/24/2023 12:04:04.060,0.355,-0.863,0.191
3/24/2023 12:04:04.070,0.332,-1.016,0.246
3/24/2023 12:04:04.080,0.254,-1.133,0.215
3/24/2023 12:04:04.090,0.133,-1.242,0.09
3/24/2023 12:04:04.100,0.035,-1.406,-0.012
3/24/2023 12:04:04.110,-0.031,-1.617,-0.055
3/24/2023 12:04:04.120,-0.063,-1.816,-0.094
3/24/2023 12:04:04.130,-0.004,-1.961,-0.07
3/24/2023 12:04:04.140,0.156,-1.961,0.031
3/24/2023 12:04:04.150,0.328,-1.863,0.301
3/24/2023 12:04:04.160,0.297,-1.742,0.445
3/24/2023 12:04:04.170,0.094,-1.672,0.422
3/24/2023 12:04:04.180,-0.234,-1.684,0.086
3/24/2023 12:04:04.190,-0.406,-1.773,-0.219
3/24/2023 12:04:04.200,-0.277,-1.773,-0.141
3/24/2023 12:04:04.210,-0.203,-1.488,0.145
3/24/2023 12:04:04.220,-0.141,-1.059,0.266
3/24/2023 12:04:04.230,0.012,-0.754,0.43
3/24/2023 12:04:04.240,0.074,-0.652,0.598
3/24/2023 12:04:04.250,-0.004,-0.617,0.559
3/24/2023 12:04:04.260,-0.133,-0.703,0.434
3/24/2023 12:04:04.270,-0.344,-0.922,0.223
3/24/2023 12:04:04.280,-0.57,-1.211,0.078
3/24/2023 12:04:04.290,-0.711,-1.457,0.09
3/24/2023 12:04:04.300,-0.703,-1.465,0.105
3/24/2023 12:04:04.310,-0.629,-1.254,0.117
3/24/2023 12:04:04.320,-0.555,-1.07,0.16
3/24/2023 12:04:04.330,-0.457,-0.957,0.203
3/24/2023 12:04:04.340,-0.336,-0.875,0.238
3/24/2023 12:04:04.350,-0.215,-0.836,0.254
3/24/2023 12:04:04.360,-0.094,-0.828,0.258
3/24/2023 12:04:04.370,-0.012,-0.824,0.254
3/24/2023 12:04:04.380,0.012,-0.809,0.23
3/24/2023 12:04:04.390,-0.012,-0.777,0.172
3/24/2023 12:04:04.400,-0.078,-0.758,0.109
3/24/2023 12:04:04.410,-0.16,-0.75,0.074
3/24/2023 12:04:04.420,-0.238,-0.742,0.043
3/24/2023 12:04:04.430,-0.281,-0.723,0.02
3/24/2023 12:04:04.440,-0.293,-0.668,0
3/24/2023 12:04:04.450,-0.273,-0.582,-0.02
3/24/2023 12:04:04.460,-0.223,-0.492,-0.02
3/24/2023 12:04:04.470,-0.152,-0.414,-0.023
3/24/2023 12:04:04.480,-0.082,-0.344,-0.02
3/24/2023 12:04:04.490,-0.008,-0.297,-0.008
3/24/2023 12:04:04.500,0.035,-0.313,0.016
3/24/2023 12:04:04.510,0.063,-0.375,0.031
3/24/2023 12:04:04.520,0.07,-0.449,0.031
3/24/2023 12:04:04.530,0.066,-0.508,0.023
3/24/2023 12:04:04.540,0.055,-0.559,0.027
3/24/2023 12:04:04.550,0.055,-0.641,0.07
3/24/2023 12:04:04.560,0.047,-0.711,0.098
3/24/2023 12:04:04.570,0.023,-0.75,0.039
3/24/2023 12:04:04.580,-0.016,-0.781,0.027
3/24/2023 12:04:04.590,-0.066,-0.84,0.023
3/24/2023 12:04:04.600,-0.055,-0.879,-0.031
3/24/2023 12:04:04.610,0.012,-0.938,-0.059
3/24/2023 12:04:04.620,0.129,-1.023,-0.004
3/24/2023 12:04:04.630,0.281,-1.109,-0.016
3/24/2023 12:04:04.640,0.492,-1.188,-0.043
3/24/2023 12:04:04.650,0.75,-1.293,-0.012
3/24/2023 12:04:04.660,0.977,-1.41,-0.004
3/24/2023 12:04:04.670,1.047,-1.508,-0.031
3/24/2023 12:04:04.680,0.949,-1.57,-0.059
3/24/2023 12:04:04.690,0.746,-1.586,-0.082
3/24/2023 12:04:04.700,0.512,-1.523,-0.102
3/24/2023 12:04:04.710,0.266,-1.449,-0.063
3/24/2023 12:04:04.720,0.07,-1.461,0
3/24/2023 12:04:04.730,-0.121,-1.523,0.074
3/24/2023 12:04:04.740,-0.313,-1.527,0.078
3/24/2023 12:04:04.750,-0.484,-1.402,0.035
3/24/2023 12:04:04.760,-0.625,-1.234,0.031
3/24/2023 12:04:04.770,-0.707,-1.098,0
3/24/2023 12:04:04.780,-0.707,-0.957,-0.07
3/24/2023 12:04:04.790,-0.676,-0.941,-0.051
3/24/2023 12:04:04.800,-0.648,-1.094,0.02
3/24/2023 12:04:04.810,-0.676,-1.324,0.051
3/24/2023 12:04:04.820,-0.715,-1.582,0.074
3/24/2023 12:04:04.830,-0.742,-1.793,0.078
3/24/2023 12:04:04.840,-0.75,-1.938,0.039
3/24/2023 12:04:04.850,-0.699,-1.965,0
3/24/2023 12:04:04.860,-0.582,-1.871,-0.004
3/24/2023 12:04:04.870,-0.422,-1.664,0.008
3/24/2023 12:04:04.880,-0.254,-1.434,0.031
3/24/2023 12:04:04.890,-0.074,-1.23,0.055
3/24/2023 12:04:04.900,0.066,-1.035,0.047
3/24/2023 12:04:04.910,0.176,-0.926,0.082
3/24/2023 12:04:04.920,0.227,-0.82,0.078
3/24/2023 12:04:04.930,0.203,-0.719,0.035
3/24/2023 12:04:04.940,0.109,-0.605,-0.063
3/24/2023 12:04:04.950,0.086,-0.52,-0.051
3/24/2023 12:04:04.960,0.09,-0.48,0
3/24/2023 12:04:04.970,0.168,-0.422,0.059
3/24/2023 12:04:04.980,0.113,-0.25,0.012
3/24/2023 12:04:04.990,0.039,-0.113,-0.004
3/24/2023 12:04:05.000,0.016,-0.016,0.043
3/24/2023 12:04:05.010,0.063,0.07,0.105
3/24/2023 12:04:05.020,0.125,0.094,0.148
3/24/2023 12:04:05.030,0.141,0.063,0.18
3/24/2023 12:04:05.040,0.137,-0.023,0.18
3/24/2023 12:04:05.050,0.148,-0.156,0.188
3/24/2023 12:04:05.060,0.16,-0.309,0.199
3/24/2023 12:04:05.070,0.156,-0.422,0.137
3/24/2023 12:04:05.080,0.172,-0.531,0.086
3/24/2023 12:04:05.090,0.211,-0.676,0.066
3/24/2023 12:04:05.100,0.242,-0.867,0.129
3/24/2023 12:04:05.110,0.23,-1.082,0.246
3/24/2023 12:04:05.120,0.133,-1.223,0.188
3/24/2023 12:04:05.130,0.008,-1.367,0.102
3/24/2023 12:04:05.140,-0.102,-1.543,0.035
3/24/2023 12:04:05.150,-0.133,-1.695,0.023
3/24/2023 12:04:05.160,-0.133,-1.723,0.012
3/24/2023 12:04:05.170,-0.07,-1.738,0.082
3/24/2023 12:04:05.180,0.09,-1.758,0.199
3/24/2023 12:04:05.190,0.332,-1.648,0.32
3/24/2023 12:04:05.200,0.488,-1.531,0.449
3/24/2023 12:04:05.210,0.406,-1.527,0.461
3/24/2023 12:04:05.220,0.195,-1.719,0.367
3/24/2023 12:04:05.230,-0.09,-1.977,0.004
3/24/2023 12:04:05.240,-0.254,-2.164,-0.141
3/24/2023 12:04:05.250,-0.398,-2.125,0.082
3/24/2023 12:04:05.260,-0.559,-1.676,0.133
3/24/2023 12:04:05.270,-0.496,-1.145,0.09
3/24/2023 12:04:05.280,-0.402,-0.809,0.117
3/24/2023 12:04:05.290,-0.324,-0.66,0.172
3/24/2023 12:04:05.300,-0.25,-0.711,0.273
3/24/2023 12:04:05.310,-0.234,-0.848,0.305
3/24/2023 12:04:05.320,-0.262,-0.988,0.266
3/24/2023 12:04:05.330,-0.289,-1.051,0.203
3/24/2023 12:04:05.340,-0.32,-1.098,0.152
3/24/2023 12:04:05.350,-0.344,-1.09,0.117
3/24/2023 12:04:05.360,-0.344,-1.039,0.109
3/24/2023 12:04:05.370,-0.344,-0.996,0.125
3/24/2023 12:04:05.380,-0.324,-0.949,0.148
3/24/2023 12:04:05.390,-0.297,-0.91,0.148
3/24/2023 12:04:05.400,-0.254,-0.867,0.137
3/24/2023 12:04:05.410,-0.207,-0.836,0.133
3/24/2023 12:04:05.420,-0.172,-0.797,0.129
3/24/2023 12:04:05.430,-0.16,-0.758,0.117
3/24/2023 12:04:05.440,-0.16,-0.703,0.102
3/24/2023 12:04:05.450,-0.176,-0.641,0.07
3/24/2023 12:04:05.460,-0.188,-0.578,0.031
3/24/2023 12:04:05.470,-0.191,-0.52,0.012
3/24/2023 12:04:05.480,-0.176,-0.48,0
3/24/2023 12:04:05.490,-0.125,-0.426,-0.012
3/24/2023 12:04:05.500,-0.063,-0.402,-0.008
3/24/2023 12:04:05.510,0.008,-0.391,0
3/24/2023 12:04:05.520,0.031,-0.383,-0.012
3/24/2023 12:04:05.530,0.031,-0.398,-0.023
3/24/2023 12:04:05.540,0.074,-0.473,0.012
3/24/2023 12:04:05.550,0.105,-0.547,0.047
3/24/2023 12:04:05.560,0.102,-0.559,0.055
3/24/2023 12:04:05.570,0.086,-0.582,0.066
3/24/2023 12:04:05.580,0.063,-0.672,0.086
3/24/2023 12:04:05.590,0.012,-0.758,0.066
3/24/2023 12:04:05.600,-0.059,-0.863,0
3/24/2023 12:04:05.610,-0.109,-0.934,-0.09
3/24/2023 12:04:05.620,-0.098,-1.004,-0.094
3/24/2023 12:04:05.630,-0.023,-1.078,-0.039
3/24/2023 12:04:05.640,0.078,-1.16,0.027
3/24/2023 12:04:05.650,0.23,-1.215,0.063
3/24/2023 12:04:05.660,0.441,-1.211,0.043
3/24/2023 12:04:05.670,0.688,-1.219,0.023
3/24/2023 12:04:05.680,0.883,-1.289,0.016
3/24/2023 12:04:05.690,0.961,-1.422,0.012
3/24/2023 12:04:05.700,0.871,-1.504,-0.039
3/24/2023 12:04:05.710,0.676,-1.531,-0.066
3/24/2023 12:04:05.720,0.492,-1.551,-0.047
3/24/2023 12:04:05.730,0.367,-1.566,-0.051
3/24/2023 12:04:05.740,0.188,-1.609,-0.09
3/24/2023 12:04:05.750,-0.035,-1.668,-0.035
3/24/2023 12:04:05.760,-0.328,-1.707,0.023
3/24/2023 12:04:05.770,-0.617,-1.688,0.012
3/24/2023 12:04:05.780,-0.828,-1.508,-0.063
3/24/2023 12:04:05.790,-0.938,-1.195,-0.156
3/24/2023 12:04:05.800,-0.988,-0.902,-0.258
3/24/2023 12:04:05.810,-0.938,-0.84,-0.207
3/24/2023 12:04:05.820,-0.844,-0.965,-0.086
3/24/2023 12:04:05.830,-0.719,-1.141,0.02
3/24/2023 12:04:05.840,-0.586,-1.32,0.074
3/24/2023 12:04:05.850,-0.441,-1.477,0.094
3/24/2023 12:04:05.860,-0.32,-1.59,0.094
3/24/2023 12:04:05.870,-0.238,-1.656,0.094
3/24/2023 12:04:05.880,-0.184,-1.688,0.109
3/24/2023 12:04:05.890,-0.145,-1.625,0.098
3/24/2023 12:04:05.900,-0.113,-1.473,0.059
3/24/2023 12:04:05.910,-0.082,-1.277,0.023
3/24/2023 12:04:05.920,-0.051,-1.09,0.004
3/24/2023 12:04:05.930,-0.02,-0.922,-0.02
3/24/2023 12:04:05.940,-0.008,-0.789,-0.047
3/24/2023 12:04:05.950,-0.016,-0.703,-0.055
3/24/2023 12:04:05.960,0.035,-0.664,-0.031
3/24/2023 12:04:05.970,0.074,-0.621,-0.023
3/24/2023 12:04:05.980,0.184,-0.617,0.063
3/24/2023 12:04:05.990,0.313,-0.578,0.145
3/24/2023 12:04:06.000,0.266,-0.469,0.109
3/24/2023 12:04:06.010,0.156,-0.309,0.055
3/24/2023 12:04:06.020,0.086,-0.207,0.066
3/24/2023 12:04:06.030,0.047,-0.133,0.094
3/24/2023 12:04:06.040,-0.004,-0.055,0.109
3/24/2023 12:04:06.050,-0.031,0.004,0.129
3/24/2023 12:04:06.060,-0.031,0.027,0.172
3/24/2023 12:04:06.070,-0.008,0.004,0.219
3/24/2023 12:04:06.080,0.004,-0.074,0.227
3/24/2023 12:04:06.090,0.016,-0.207,0.219
3/24/2023 12:04:06.100,0.051,-0.375,0.211
3/24/2023 12:04:06.110,0.078,-0.551,0.156
3/24/2023 12:04:06.120,0.102,-0.691,0.047
3/24/2023 12:04:06.130,0.133,-0.848,0.035
3/24/2023 12:04:06.140,0.133,-1.039,0.039
3/24/2023 12:04:06.150,0.117,-1.188,0.027
3/24/2023 12:04:06.160,0.078,-1.348,0.066
3/24/2023 12:04:06.170,-0.016,-1.559,0.078
3/24/2023 12:04:06.180,-0.078,-1.703,0.082
3/24/2023 12:04:06.190,-0.102,-1.699,0.039
3/24/2023 12:04:06.200,-0.066,-1.582,-0.012
3/24/2023 12:04:06.210,0.039,-1.477,-0.004
3/24/2023 12:04:06.220,0.262,-1.41,0.07
3/24/2023 12:04:06.230,0.551,-1.387,0.254
3/24/2023 12:04:06.240,0.629,-1.516,0.477
3/24/2023 12:04:06.250,0.516,-1.691,0.477
3/24/2023 12:04:06.260,0.223,-1.949,0.309
3/24/2023 12:04:06.270,-0.148,-2.16,-0.043
3/24/2023 12:04:06.280,-0.426,-2.191,-0.156
3/24/2023 12:04:06.290,-0.617,-1.934,0.02
3/24/2023 12:04:06.300,-0.621,-1.371,0.027
3/24/2023 12:04:06.310,-0.504,-0.918,0.172
3/24/2023 12:04:06.320,-0.371,-0.684,0.301
3/24/2023 12:04:06.330,-0.262,-0.539,0.383
3/24/2023 12:04:06.340,-0.184,-0.566,0.457
3/24/2023 12:04:06.350,-0.145,-0.754,0.438
3/24/2023 12:04:06.360,-0.184,-0.98,0.375
3/24/2023 12:04:06.370,-0.254,-1.133,0.238
3/24/2023 12:04:06.380,-0.293,-1.207,0.145
3/24/2023 12:04:06.390,-0.348,-1.219,0.121
3/24/2023 12:04:06.400,-0.379,-1.145,0.133
3/24/2023 12:04:06.410,-0.395,-1.039,0.133
3/24/2023 12:04:06.420,-0.383,-0.953,0.133
3/24/2023 12:04:06.430,-0.336,-0.898,0.129
3/24/2023 12:04:06.440,-0.27,-0.875,0.125
3/24/2023 12:04:06.450,-0.191,-0.867,0.117
3/24/2023 12:04:06.460,-0.129,-0.844,0.109
3/24/2023 12:04:06.470,-0.094,-0.801,0.102
3/24/2023 12:04:06.480,-0.094,-0.754,0.082
3/24/2023 12:04:06.490,-0.109,-0.691,0.059
3/24/2023 12:04:06.500,-0.145,-0.629,0.035
3/24/2023 12:04:06.510,-0.148,-0.578,0.027
3/24/2023 12:04:06.520,-0.141,-0.52,0.008
3/24/2023 12:04:06.530,-0.113,-0.461,0.004
3/24/2023 12:04:06.540,-0.066,-0.418,-0.004
3/24/2023 12:04:06.550,-0.02,-0.379,-0.004
3/24/2023 12:04:06.560,0.031,-0.391,0
3/24/2023 12:04:06.570,0.055,-0.426,-0.012
3/24/2023 12:04:06.580,0.082,-0.512,0.023
3/24/2023 12:04:06.590,0.102,-0.609,0.074
3/24/2023 12:04:06.600,0.094,-0.621,0.047
3/24/2023 12:04:06.610,0.086,-0.664,0.07
3/24/2023 12:04:06.620,0.074,-0.703,0.086
3/24/2023 12:04:06.630,0.031,-0.711,0.086
3/24/2023 12:04:06.640,-0.008,-0.766,0.109
3/24/2023 12:04:06.650,-0.047,-0.824,0.035
3/24/2023 12:04:06.660,-0.055,-0.883,0.027
3/24/2023 12:04:06.670,-0.027,-0.992,0.035
3/24/2023 12:04:06.680,0.039,-1.105,0.008
3/24/2023 12:04:06.690,0.156,-1.156,-0.004
3/24/2023 12:04:06.700,0.316,-1.156,-0.027
3/24/2023 12:04:06.710,0.52,-1.129,-0.016
3/24/2023 12:04:06.720,0.727,-1.16,0.008
3/24/2023 12:04:06.730,0.898,-1.262,0.016
3/24/2023 12:04:06.740,0.953,-1.426,0
3/24/2023 12:04:06.750,0.871,-1.543,-0.012
3/24/2023 12:04:06.760,0.672,-1.543,-0.023
3/24/2023 12:04:06.770,0.465,-1.527,-0.02
3/24/2023 12:04:06.780,0.309,-1.555,-0.008
3/24/2023 12:04:06.790,0.102,-1.609,0.004
3/24/2023 12:04:06.800,-0.129,-1.633,0.02
3/24/2023 12:04:06.810,-0.367,-1.617,0.047
3/24/2023 12:04:06.820,-0.609,-1.566,0.059
3/24/2023 12:04:06.830,-0.773,-1.426,0.035
3/24/2023 12:04:06.840,-0.871,-1.219,-0.039
3/24/2023 12:04:06.850,-0.883,-1.004,-0.145
3/24/2023 12:04:06.860,-0.805,-0.906,-0.145
3/24/2023 12:04:06.870,-0.699,-0.945,-0.078
3/24/2023 12:04:06.880,-0.621,-1.082,0.008
3/24/2023 12:04:06.890,-0.578,-1.25,0.047
3/24/2023 12:04:06.900,-0.547,-1.48,0.086
3/24/2023 12:04:06.910,-0.531,-1.688,0.094
3/24/2023 12:04:06.920,-0.516,-1.797,0.074
3/24/2023 12:04:06.930,-0.473,-1.789,0.063
3/24/2023 12:04:06.940,-0.395,-1.652,0.059
3/24/2023 12:04:06.950,-0.32,-1.438,0.039
3/24/2023 12:04:06.960,-0.242,-1.199,0.023
3/24/2023 12:04:06.970,-0.156,-0.992,0.023
3/24/2023 12:04:06.980,-0.086,-0.844,0.027
3/24/2023 12:04:06.990,-0.035,-0.715,0.008
3/24/2023 12:04:07.000,-0.016,-0.648,0.016
3/24/2023 12:04:07.010,0.016,-0.613,0.016
3/24/2023 12:04:07.020,0.098,-0.609,0.043
3/24/2023 12:04:07.030,0.188,-0.574,0.043
3/24/2023 12:04:07.040,0.172,-0.457,0.012
3/24/2023 12:04:07.050,0.203,-0.352,0.059
3/24/2023 12:04:07.060,0.199,-0.277,0.105
3/24/2023 12:04:07.070,0.172,-0.184,0.121
3/24/2023 12:04:07.080,0.133,-0.09,0.129
3/24/2023 12:04:07.090,0.117,-0.023,0.145
3/24/2023 12:04:07.100,0.098,-0.023,0.16
3/24/2023 12:04:07.110,0.09,-0.07,0.164
3/24/2023 12:04:07.120,0.098,-0.156,0.156
3/24/2023 12:04:07.130,0.133,-0.27,0.195
3/24/2023 12:04:07.140,0.172,-0.402,0.254
3/24/2023 12:04:07.150,0.176,-0.527,0.23
3/24/2023 12:04:07.160,0.176,-0.652,0.141
3/24/2023 12:04:07.170,0.18,-0.797,0.078
3/24/2023 12:04:07.180,0.211,-0.965,0.133
3/24/2023 12:04:07.190,0.203,-1.125,0.145
3/24/2023 12:04:07.200,0.145,-1.262,0.074
3/24/2023 12:04:07.210,0.055,-1.434,-0.016
3/24/2023 12:04:07.220,-0.008,-1.637,-0.043
3/24/2023 12:04:07.230,-0.027,-1.773,-0.051
3/24/2023 12:04:07.240,-0.031,-1.789,-0.051
3/24/2023 12:04:07.250,0.055,-1.781,0.02
3/24/2023 12:04:07.260,0.238,-1.672,0.086
3/24/2023 12:04:07.270,0.496,-1.461,0.195
3/24/2023 12:04:07.280,0.648,-1.34,0.387
3/24/2023 12:04:07.290,0.609,-1.383,0.469
3/24/2023 12:04:07.300,0.418,-1.574,0.375
3/24/2023 12:04:07.310,0.09,-1.809,0.086
3/24/2023 12:04:07.320,-0.234,-2.008,-0.008
3/24/2023 12:04:07.330,-0.488,-1.992,0.156
3/24/2023 12:04:07.340,-0.641,-1.574,0.094
3/24/2023 12:04:07.350,-0.656,-1.125,0.047
3/24/2023 12:04:07.360,-0.609,-0.793,0.02
3/24/2023 12:04:07.370,-0.527,-0.633,0.125
3/24/2023 12:04:07.380,-0.41,-0.625,0.246
3/24/2023 12:04:07.390,-0.316,-0.719,0.32
3/24/2023 12:04:07.400,-0.262,-0.863,0.371
3/24/2023 12:04:07.410,-0.254,-1.004,0.305
3/24/2023 12:04:07.420,-0.273,-1.141,0.227
3/24/2023 12:04:07.430,-0.293,-1.23,0.199
3/24/2023 12:04:07.440,-0.297,-1.195,0.203
3/24/2023 12:04:07.450,-0.32,-1.078,0.176
3/24/2023 12:04:07.460,-0.34,-0.945,0.148
3/24/2023 12:04:07.470,-0.332,-0.844,0.133
3/24/2023 12:04:07.480,-0.297,-0.789,0.125
3/24/2023 12:04:07.490,-0.238,-0.77,0.117
3/24/2023 12:04:07.500,-0.203,-0.758,0.105
3/24/2023 12:04:07.510,-0.168,-0.738,0.113
3/24/2023 12:04:07.520,-0.152,-0.699,0.113
3/24/2023 12:04:07.530,-0.16,-0.648,0.102
3/24/2023 12:04:07.540,-0.172,-0.586,0.078
3/24/2023 12:04:07.550,-0.18,-0.531,0.063
3/24/2023 12:04:07.560,-0.168,-0.484,0.043
3/24/2023 12:04:07.570,-0.141,-0.438,0.023
3/24/2023 12:04:07.580,-0.098,-0.406,0.004
3/24/2023 12:04:07.590,-0.043,-0.422,-0.004
3/24/2023 12:04:07.600,-0.004,-0.473,-0.008
3/24/2023 12:04:07.610,-0.004,-0.492,-0.047
3/24/2023 12:04:07.620,0.02,-0.543,-0.039
3/24/2023 12:04:07.630,0.059,-0.609,-0.02
3/24/2023 12:04:07.640,0.086,-0.613,0
3/24/2023 12:04:07.650,0.105,-0.563,-0.016
3/24/2023 12:04:07.660,0.094,-0.602,0.051
3/24/2023 12:04:07.670,0.035,-0.719,0.086
3/24/2023 12:04:07.680,-0.051,-0.848,0.07
3/24/2023 12:04:07.690,-0.094,-0.941,-0.039
3/24/2023 12:04:07.700,-0.098,-0.98,-0.105
3/24/2023 12:04:07.710,-0.043,-1.02,-0.078
3/24/2023 12:04:07.720,0.098,-1.051,-0.02
3/24/2023 12:04:07.730,0.273,-1.086,-0.02
3/24/2023 12:04:07.740,0.516,-1.125,-0.035
3/24/2023 12:04:07.750,0.77,-1.18,-0.012
3/24/2023 12:04:07.760,0.961,-1.316,0.004
3/24/2023 12:04:07.770,1.027,-1.484,-0.031
3/24/2023 12:04:07.780,0.914,-1.563,-0.105
3/24/2023 12:04:07.790,0.691,-1.602,-0.113
3/24/2023 12:04:07.800,0.477,-1.609,-0.078
3/24/2023 12:04:07.810,0.324,-1.629,-0.035
3/24/2023 12:04:07.820,0.094,-1.684,-0.008
3/24/2023 12:04:07.830,-0.168,-1.691,-0.008
3/24/2023 12:04:07.840,-0.434,-1.656,0.027
3/24/2023 12:04:07.850,-0.695,-1.59,0.039
3/24/2023 12:04:07.860,-0.898,-1.441,-0.051
3/24/2023 12:04:07.870,-1.004,-1.176,-0.199
3/24/2023 12:04:07.880,-1.035,-0.895,-0.309
3/24/2023 12:04:07.890,-1,-0.801,-0.297
3/24/2023 12:04:07.900,-0.895,-0.957,-0.18
3/24/2023 12:04:07.910,-0.746,-1.223,-0.023
3/24/2023 12:04:07.920,-0.605,-1.453,0.074
3/24/2023 12:04:07.930,-0.469,-1.648,0.133
3/24/2023 12:04:07.940,-0.332,-1.77,0.117
3/24/2023 12:04:07.950,-0.223,-1.727,0.059
3/24/2023 12:04:07.960,-0.137,-1.625,0.078
3/24/2023 12:04:07.970,-0.07,-1.461,0.094
3/24/2023 12:04:07.980,-0.027,-1.262,0.09
3/24/2023 12:04:07.990,-0.008,-1.074,0.094
3/24/2023 12:04:08.000,-0.012,-0.93,0.074
3/24/2023 12:04:08.010,-0.004,-0.813,0.043
3/24/2023 12:04:08.020,-0.016,-0.734,0.008
3/24/2023 12:04:08.030,-0.012,-0.691,-0.004
3/24/2023 12:04:08.040,0.012,-0.652,-0.016
3/24/2023 12:04:08.050,0.074,-0.609,-0.02
3/24/2023 12:04:08.060,0.156,-0.551,0.004
3/24/2023 12:04:08.070,0.223,-0.484,0.035
3/24/2023 12:04:08.080,0.25,-0.41,0.07
3/24/2023 12:04:08.090,0.246,-0.328,0.098
3/24/2023 12:04:08.100,0.211,-0.25,0.121
3/24/2023 12:04:08.110,0.16,-0.176,0.145
3/24/2023 12:04:08.120,0.121,-0.113,0.16
3/24/2023 12:04:08.130,0.102,-0.059,0.168
3/24/2023 12:04:08.140,0.102,-0.027,0.176
3/24/2023 12:04:08.150,0.098,-0.035,0.168
3/24/2023 12:04:08.160,0.098,-0.137,0.172
3/24/2023 12:04:08.170,0.098,-0.324,0.227
3/24/2023 12:04:08.180,0.109,-0.531,0.211
3/24/2023 12:04:08.190,0.137,-0.715,0.129
3/24/2023 12:04:08.200,0.176,-0.906,0.18
3/24/2023 12:04:08.210,0.141,-1.07,0.141
3/24/2023 12:04:08.220,0.109,-1.176,0.027
3/24/2023 12:04:08.230,0.063,-1.32,-0.023
3/24/2023 12:04:08.240,-0.023,-1.527,-0.047
3/24/2023 12:04:08.250,-0.047,-1.699,-0.023
3/24/2023 12:04:08.260,-0.051,-1.746,-0.027
3/24/2023 12:04:08.270,-0.07,-1.672,-0.086
3/24/2023 12:04:08.280,0.027,-1.582,-0.07
3/24/2023 12:04:08.290,0.297,-1.434,-0.004
3/24/2023 12:04:08.300,0.641,-1.285,0.195
3/24/2023 12:04:08.310,0.75,-1.336,0.441
3/24/2023 12:04:08.320,0.668,-1.504,0.496
3/24/2023 12:04:08.330,0.375,-1.719,0.266
3/24/2023 12:04:08.340,-0.043,-1.949,-0.066
3/24/2023 12:04:08.350,-0.367,-2.16,-0.055
3/24/2023 12:04:08.360,-0.641,-2.082,0.164
3/24/2023 12:04:08.370,-0.777,-1.586,0.063
3/24/2023 12:04:08.380,-0.77,-1.133,-0.008
3/24/2023 12:04:08.390,-0.68,-0.887,0.066
3/24/2023 12:04:08.400,-0.543,-0.734,0.199
3/24/2023 12:04:08.410,-0.418,-0.695,0.301
3/24/2023 12:04:08.420,-0.313,-0.762,0.379
3/24/2023 12:04:08.430,-0.254,-0.879,0.355
3/24/2023 12:04:08.440,-0.227,-0.988,0.289
3/24/2023 12:04:08.450,-0.227,-1.09,0.234
3/24/2023 12:04:08.460,-0.266,-1.133,0.195
3/24/2023 12:04:08.470,-0.316,-1.117,0.176
3/24/2023 12:04:08.480,-0.359,-1.043,0.152
3/24/2023 12:04:08.490,-0.359,-0.949,0.141
3/24/2023 12:04:08.500,-0.344,-0.867,0.129
3/24/2023 12:04:08.510,-0.293,-0.816,0.121
3/24/2023 12:04:08.520,-0.25,-0.777,0.105
3/24/2023 12:04:08.530,-0.227,-0.742,0.094
3/24/2023 12:04:08.540,-0.211,-0.695,0.09
3/24/2023 12:04:08.550,-0.207,-0.641,0.082
3/24/2023 12:04:08.560,-0.211,-0.586,0.078
3/24/2023 12:04:08.570,-0.207,-0.535,0.055
3/24/2023 12:04:08.580,-0.176,-0.496,0.031
3/24/2023 12:04:08.590,-0.133,-0.465,0.004
3/24/2023 12:04:08.600,-0.07,-0.461,-0.008
3/24/2023 12:04:08.610,-0.004,-0.469,-0.012
3/24/2023 12:04:08.620,0.066,-0.492,-0.016
3/24/2023 12:04:08.630,0.121,-0.543,-0.012
3/24/2023 12:04:08.640,0.16,-0.594,-0.004
3/24/2023 12:04:08.650,0.184,-0.645,0.012
3/24/2023 12:04:08.660,0.203,-0.676,0.043
3/24/2023 12:04:08.670,0.191,-0.684,0.07
3/24/2023 12:04:08.680,0.152,-0.676,0.051
3/24/2023 12:04:08.690,0.113,-0.676,0.016
3/24/2023 12:04:08.700,0.078,-0.738,0.039
3/24/2023 12:04:08.710,0.047,-0.844,0.059
3/24/2023 12:04:08.720,0.02,-0.891,0
3/24/2023 12:04:08.730,0.02,-0.945,0.043
3/24/2023 12:04:08.740,0.055,-1,0.051
3/24/2023 12:04:08.750,0.141,-1.039,0.07
3/24/2023 12:04:08.760,0.258,-1.082,0.082
3/24/2023 12:04:08.770,0.406,-1.086,0.055
3/24/2023 12:04:08.780,0.551,-1.113,0.035
3/24/2023 12:04:08.790,0.664,-1.199,0.031
3/24/2023 12:04:08.800,0.762,-1.328,0.023
3/24/2023 12:04:08.810,0.766,-1.457,-0.031
3/24/2023 12:04:08.820,0.672,-1.535,-0.078
3/24/2023 12:04:08.830,0.512,-1.531,-0.074
3/24/2023 12:04:08.840,0.336,-1.52,-0.047
3/24/2023 12:04:08.850,0.242,-1.523,-0.031
3/24/2023 12:04:08.860,0.109,-1.547,0
3/24/2023 12:04:08.870,-0.051,-1.551,0.012
3/24/2023 12:04:08.880,-0.23,-1.5,0.039
3/24/2023 12:04:08.890,-0.438,-1.418,0.09
3/24/2023 12:04:08.900,-0.602,-1.27,0.074
3/24/2023 12:04:08.910,-0.707,-1.082,0.023
3/24/2023 12:04:08.920,-0.762,-0.922,-0.07
3/24/2023 12:04:08.930,-0.77,-0.855,-0.109
3/24/2023 12:04:08.940,-0.754,-0.953,-0.094
3/24/2023 12:04:08.950,-0.734,-1.133,-0.055
3/24/2023 12:04:08.960,-0.699,-1.328,0.004
3/24/2023 12:04:08.970,-0.652,-1.504,0.047
3/24/2023 12:04:08.980,-0.582,-1.629,0.051
3/24/2023 12:04:08.990,-0.473,-1.688,0.035
3/24/2023 12:04:09.000,-0.336,-1.688,0.055
3/24/2023 12:04:09.010,-0.18,-1.609,0.086
3/24/2023 12:04:09.020,-0.07,-1.453,0.07
3/24/2023 12:04:09.030,0.016,-1.254,0.043
3/24/2023 12:04:09.040,0.09,-1.043,0.012
3/24/2023 12:04:09.050,0.133,-0.883,0.043
3/24/2023 12:04:09.060,0.145,-0.781,0.07
3/24/2023 12:04:09.070,0.121,-0.691,0.055
3/24/2023 12:04:09.080,0.09,-0.605,0.023
3/24/2023 12:04:09.090,0.082,-0.539,-0.004
3/24/2023 12:04:09.100,0.098,-0.477,-0.012
3/24/2023 12:04:09.110,0.137,-0.43,0.008
3/24/2023 12:04:09.120,0.164,-0.371,0.043
3/24/2023 12:04:09.130,0.168,-0.309,0.082
3/24/2023 12:04:09.140,0.152,-0.254,0.117
3/24/2023 12:04:09.150,0.141,-0.207,0.141
3/24/2023 12:04:09.160,0.145,-0.168,0.152
3/24/2023 12:04:09.170,0.141,-0.168,0.172
3/24/2023 12:04:09.180,0.133,-0.203,0.188
3/24/2023 12:04:09.190,0.125,-0.266,0.191
3/24/2023 12:04:09.200,0.125,-0.379,0.238
3/24/2023 12:04:09.210,0.105,-0.504,0.238
3/24/2023 12:04:09.220,0.098,-0.574,0.18
3/24/2023 12:04:09.230,0.102,-0.66,0.133
3/24/2023 12:04:09.240,0.125,-0.793,0.137
3/24/2023 12:04:09.250,0.133,-0.895,0.086
3/24/2023 12:04:09.260,0.16,-0.945,0.012
3/24/2023 12:04:09.270,0.188,-1.059,0.012
3/24/2023 12:04:09.280,0.148,-1.219,-0.016
3/24/2023 12:04:09.290,0.098,-1.469,-0.027
3/24/2023 12:04:09.300,0.027,-1.676,-0.063
3/24/2023 12:04:09.310,-0.031,-1.785,-0.074
3/24/2023 12:04:09.320,0.031,-1.836,-0.004
3/24/2023 12:04:09.330,0.223,-1.734,0.105
3/24/2023 12:04:09.340,0.418,-1.602,0.32
3/24/2023 12:04:09.350,0.426,-1.586,0.453
3/24/2023 12:04:09.360,0.313,-1.66,0.418
3/24/2023 12:04:09.370,0.055,-1.805,0.141
3/24/2023 12:04:09.380,-0.207,-2.031,-0.074
3/24/2023 12:04:09.390,-0.297,-2.137,-0.043
3/24/2023 12:04:09.400,-0.348,-1.867,-0.012
3/24/2023 12:04:09.410,-0.32,-1.422,0.148
3/24/2023 12:04:09.420,-0.23,-1.074,0.238
3/24/2023 12:04:09.430,-0.215,-0.859,0.305
3/24/2023 12:04:09.440,-0.172,-0.719,0.328
3/24/2023 12:04:09.450,-0.172,-0.684,0.328
3/24/2023 12:04:09.460,-0.223,-0.785,0.328
3/24/2023 12:04:09.470,-0.297,-0.902,0.254
3/24/2023 12:04:09.480,-0.379,-1,0.18
3/24/2023 12:04:09.490,-0.426,-1.07,0.129
3/24/2023 12:04:09.500,-0.438,-1.055,0.109
3/24/2023 12:04:09.510,-0.414,-0.984,0.121
3/24/2023 12:04:09.520,-0.383,-0.898,0.145
3/24/2023 12:04:09.530,-0.34,-0.828,0.172
3/24/2023 12:04:09.540,-0.293,-0.785,0.199
3/24/2023 12:04:09.550,-0.246,-0.766,0.211
3/24/2023 12:04:09.560,-0.211,-0.762,0.203
3/24/2023 12:04:09.570,-0.211,-0.754,0.176
3/24/2023 12:04:09.580,-0.234,-0.727,0.141
3/24/2023 12:04:09.590,-0.262,-0.695,0.105
3/24/2023 12:04:09.600,-0.293,-0.664,0.066
3/24/2023 12:04:09.610,-0.301,-0.621,0.047
3/24/2023 12:04:09.620,-0.285,-0.574,0.027
3/24/2023 12:04:09.630,-0.246,-0.535,0.016
3/24/2023 12:04:09.640,-0.176,-0.516,0.02
3/24/2023 12:04:09.650,-0.09,-0.52,0.02
3/24/2023 12:04:09.660,-0.023,-0.543,0.012
3/24/2023 12:04:09.670,0.039,-0.605,0.02
3/24/2023 12:04:09.680,0.113,-0.664,0.047
3/24/2023 12:04:09.690,0.117,-0.668,0.047
3/24/2023 12:04:09.700,0.102,-0.641,0.023
3/24/2023 12:04:09.710,0.117,-0.641,0.047
3/24/2023 12:04:09.720,0.141,-0.668,0.078
3/24/2023 12:04:09.730,0.141,-0.672,0.059
3/24/2023 12:04:09.740,0.105,-0.656,0.012
3/24/2023 12:04:09.750,0.078,-0.695,0.004
3/24/2023 12:04:09.760,0.031,-0.816,0.043
3/24/2023 12:04:09.770,-0.008,-0.922,-0.012
3/24/2023 12:04:09.780,-0.023,-0.988,-0.023
3/24/2023 12:04:09.790,-0.004,-1.063,0.043
3/24/2023 12:04:09.800,0.066,-1.113,0.078
3/24/2023 12:04:09.810,0.191,-1.137,0.07
3/24/2023 12:04:09.820,0.355,-1.148,0.047
3/24/2023 12:04:09.830,0.57,-1.164,0.035
3/24/2023 12:04:09.840,0.773,-1.23,0.012
3/24/2023 12:04:09.850,0.891,-1.348,-0.016
3/24/2023 12:04:09.860,0.875,-1.449,-0.035
3/24/2023 12:04:09.870,0.758,-1.473,-0.055
3/24/2023 12:04:09.880,0.57,-1.465,-0.031
3/24/2023 12:04:09.890,0.391,-1.457,0
3/24/2023 12:04:09.900,0.262,-1.488,0.012
3/24/2023 12:04:09.910,0.086,-1.535,0
3/24/2023 12:04:09.920,-0.125,-1.555,-0.004
3/24/2023 12:04:09.930,-0.355,-1.551,0.023
3/24/2023 12:04:09.940,-0.59,-1.496,0.027
3/24/2023 12:04:09.950,-0.762,-1.348,-0.059
3/24/2023 12:04:09.960,-0.848,-1.141,-0.125
3/24/2023 12:04:09.970,-0.871,-0.949,-0.184
3/24/2023 12:04:09.980,-0.859,-0.879,-0.188
3/24/2023 12:04:09.990,-0.813,-0.953,-0.156
3/24/2023 12:04:10.000,-0.758,-1.109,-0.094
3/24/2023 12:04:10.010,-0.672,-1.246,-0.043
3/24/2023 12:04:10.020,-0.574,-1.391,-0.02
3/24/2023 12:04:10.030,-0.469,-1.508,0.004
3/24/2023 12:04:10.040,-0.367,-1.602,0.027
3/24/2023 12:04:10.050,-0.25,-1.637,0.051
3/24/2023 12:04:10.060,-0.141,-1.582,0.059
3/24/2023 12:04:10.070,-0.066,-1.441,0.047
3/24/2023 12:04:10.080,-0.039,-1.254,0.027
3/24/2023 12:04:10.090,-0.012,-1.059,0
3/24/2023 12:04:10.100,0.008,-0.883,-0.027
3/24/2023 12:04:10.110,-0.012,-0.75,-0.043
3/24/2023 12:04:10.120,-0.012,-0.723,0
3/24/2023 12:04:10.130,-0.023,-0.668,-0.004
3/24/2023 12:04:10.140,0.031,-0.664,0.039
3/24/2023 12:04:10.150,0.09,-0.66,0.082
3/24/2023 12:04:10.160,0.18,-0.664,0.109
3/24/2023 12:04:10.170,0.188,-0.57,0.063
3/24/2023 12:04:10.180,0.137,-0.453,0.023
3/24/2023 12:04:10.190,0.086,-0.344,0.008
3/24/2023 12:04:10.200,0.063,-0.27,0.027
3/24/2023 12:04:10.210,0.047,-0.215,0.051
3/24/2023 12:04:10.220,0.051,-0.207,0.09
3/24/2023 12:04:10.230,0.066,-0.227,0.137
3/24/2023 12:04:10.240,0.066,-0.273,0.164
3/24/2023 12:04:10.250,0.063,-0.383,0.152
3/24/2023 12:04:10.260,0.086,-0.504,0.164
3/24/2023 12:04:10.270,0.117,-0.617,0.176
3/24/2023 12:04:10.280,0.152,-0.664,0.109
3/24/2023 12:04:10.290,0.207,-0.703,0.074
3/24/2023 12:04:10.300,0.277,-0.793,0.109
3/24/2023 12:04:10.310,0.328,-0.91,0.191
3/24/2023 12:04:10.320,0.313,-1.008,0.188
3/24/2023 12:04:10.330,0.227,-1.125,0.109
3/24/2023 12:04:10.340,0.125,-1.258,-0.004
3/24/2023 12:04:10.350,0.039,-1.473,-0.012
3/24/2023 12:04:10.360,-0.047,-1.676,-0.012
3/24/2023 12:04:10.370,-0.098,-1.797,0
3/24/2023 12:04:10.380,-0.039,-1.805,0.039
3/24/2023 12:04:10.390,0.184,-1.66,0.18
3/24/2023 12:04:10.400,0.355,-1.516,0.352
3/24/2023 12:04:10.410,0.355,-1.512,0.402
3/24/2023 12:04:10.420,0.227,-1.598,0.277
3/24/2023 12:04:10.430,0.02,-1.746,0.066
3/24/2023 12:04:10.440,-0.125,-1.891,-0.055
3/24/2023 12:04:10.450,-0.195,-1.863,0.082
3/24/2023 12:04:10.460,-0.293,-1.566,0.207
3/24/2023 12:04:10.470,-0.316,-1.102,0.199
3/24/2023 12:04:10.480,-0.332,-0.785,0.203
3/24/2023 12:04:10.490,-0.316,-0.602,0.164
3/24/2023 12:04:10.500,-0.309,-0.559,0.18
3/24/2023 12:04:10.510,-0.316,-0.699,0.211
3/24/2023 12:04:10.520,-0.348,-0.902,0.219
3/24/2023 12:04:10.530,-0.375,-1.059,0.188
3/24/2023 12:04:10.540,-0.355,-1.16,0.156
3/24/2023 12:04:10.550,-0.313,-1.191,0.141
3/24/2023 12:04:10.560,-0.262,-1.129,0.156
3/24/2023 12:04:10.570,-0.238,-1.039,0.18
3/24/2023 12:04:10.580,-0.23,-0.969,0.188
3/24/2023 12:04:10.590,-0.219,-0.918,0.176
3/24/2023 12:04:10.600,-0.195,-0.906,0.164
3/24/2023 12:04:10.610,-0.188,-0.926,0.145
3/24/2023 12:04:10.620,-0.172,-0.934,0.121
3/24/2023 12:04:10.630,-0.172,-0.898,0.105
3/24/2023 12:04:10.640,-0.172,-0.848,0.086
3/24/2023 12:04:10.650,-0.184,-0.777,0.066
3/24/2023 12:04:10.660,-0.188,-0.711,0.051
3/24/2023 12:04:10.670,-0.195,-0.641,0.047
3/24/2023 12:04:10.680,-0.191,-0.574,0.043
3/24/2023 12:04:10.690,-0.168,-0.512,0.031
3/24/2023 12:04:10.700,-0.129,-0.461,0.016
3/24/2023 12:04:10.710,-0.094,-0.445,0.012
3/24/2023 12:04:10.720,-0.047,-0.453,0.035
3/24/2023 12:04:10.730,-0.035,-0.477,0.035
3/24/2023 12:04:10.740,-0.031,-0.5,0.031
3/24/2023 12:04:10.750,-0.039,-0.508,-0.012
3/24/2023 12:04:10.760,-0.023,-0.531,-0.027
3/24/2023 12:04:10.770,0.008,-0.551,-0.027
3/24/2023 12:04:10.780,0.043,-0.613,0.039
3/24/2023 12:04:10.790,0.055,-0.738,0.063
3/24/2023 12:04:10.800,0.023,-0.805,0.059
3/24/2023 12:04:10.810,-0.004,-0.859,0.035
3/24/2023 12:04:10.820,-0.027,-0.918,0.059
3/24/2023 12:04:10.830,-0.055,-0.988,0.07
3/24/2023 12:04:10.840,-0.035,-1.027,0.035
3/24/2023 12:04:10.850,0.063,-1.059,0
3/24/2023 12:04:10.860,0.262,-1.082,-0.012
3/24/2023 12:04:10.870,0.48,-1.109,-0.031
3/24/2023 12:04:10.880,0.695,-1.188,-0.039
3/24/2023 12:04:10.890,0.871,-1.309,-0.055
3/24/2023 12:04:10.900,0.953,-1.406,-0.078
3/24/2023 12:04:10.910,0.902,-1.461,-0.117
3/24/2023 12:04:10.920,0.77,-1.469,-0.145
3/24/2023 12:04:10.930,0.551,-1.469,-0.125
3/24/2023 12:04:10.940,0.383,-1.484,-0.094
3/24/2023 12:04:10.950,0.281,-1.508,-0.051
3/24/2023 12:04:10.960,0.133,-1.508,-0.039
3/24/2023 12:04:10.970,-0.051,-1.477,-0.023
3/24/2023 12:04:10.980,-0.277,-1.445,0.055
3/24/2023 12:04:10.990,-0.523,-1.402,0.105
3/24/2023 12:04:11.000,-0.734,-1.297,0.074
3/24/2023 12:04:11.010,-0.859,-1.117,-0.016
3/24/2023 12:04:11.020,-0.895,-0.934,-0.113
3/24/2023 12:04:11.030,-0.844,-0.855,-0.137
3/24/2023 12:04:11.040,-0.754,-0.918,-0.074
3/24/2023 12:04:11.050,-0.656,-1.063,0.004
3/24/2023 12:04:11.060,-0.57,-1.191,0.035
3/24/2023 12:04:11.070,-0.488,-1.313,0.063
3/24/2023 12:04:11.080,-0.445,-1.473,0.082
3/24/2023 12:04:11.090,-0.402,-1.641,0.09
3/24/2023 12:04:11.100,-0.328,-1.73,0.07
3/24/2023 12:04:11.110,-0.246,-1.703,0.055
3/24/2023 12:04:11.120,-0.184,-1.566,0.023
3/24/2023 12:04:11.130,-0.141,-1.383,0.008
3/24/2023 12:04:11.140,-0.094,-1.168,-0.027
3/24/2023 12:04:11.150,-0.07,-0.961,-0.051
3/24/2023 12:04:11.160,-0.035,-0.879,0.008
3/24/2023 12:04:11.170,-0.02,-0.832,0.023
3/24/2023 12:04:11.180,-0.004,-0.785,0.023
3/24/2023 12:04:11.190,0.078,-0.75,0.043
3/24/2023 12:04:11.200,0.152,-0.707,0.043
3/24/2023 12:04:11.210,0.156,-0.59,-0.004
3/24/2023 12:04:11.220,0.156,-0.461,-0.004
3/24/2023 12:04:11.230,0.172,-0.367,0.039
3/24/2023 12:04:11.240,0.156,-0.297,0.086
3/24/2023 12:04:11.250,0.133,-0.238,0.113
3/24/2023 12:04:11.260,0.105,-0.18,0.121
3/24/2023 12:04:11.270,0.074,-0.16,0.129
3/24/2023 12:04:11.280,0.063,-0.18,0.129
3/24/2023 12:04:11.290,0.07,-0.219,0.121
3/24/2023 12:04:11.300,0.105,-0.297,0.148
3/24/2023 12:04:11.310,0.16,-0.438,0.238
3/24/2023 12:04:11.320,0.18,-0.566,0.23
3/24/2023 12:04:11.330,0.195,-0.637,0.145
3/24/2023 12:04:11.340,0.215,-0.691,0.082
3/24/2023 12:04:11.350,0.238,-0.777,0.121
3/24/2023 12:04:11.360,0.219,-0.883,0.141
3/24/2023 12:04:11.370,0.164,-0.973,0.082
3/24/2023 12:04:11.380,0.09,-1.074,0.016
3/24/2023 12:04:11.390,-0.02,-1.242,-0.051
3/24/2023 12:04:11.400,-0.059,-1.477,-0.012
3/24/2023 12:04:11.410,-0.074,-1.586,-0.023
3/24/2023 12:04:11.420,-0.082,-1.648,0.004
3/24/2023 12:04:11.430,0.016,-1.672,0.078
3/24/2023 12:04:11.440,0.254,-1.566,0.23
3/24/2023 12:04:11.450,0.43,-1.473,0.41
3/24/2023 12:04:11.460,0.418,-1.512,0.477
3/24/2023 12:04:11.470,0.258,-1.66,0.336
3/24/2023 12:04:11.480,-0.012,-1.852,0.066
3/24/2023 12:04:11.490,-0.184,-2.023,-0.016
3/24/2023 12:04:11.500,-0.289,-1.949,0.063
3/24/2023 12:04:11.510,-0.445,-1.594,0.148
3/24/2023 12:04:11.520,-0.43,-1.188,0.121
3/24/2023 12:04:11.530,-0.402,-0.977,0.09
3/24/2023 12:04:11.540,-0.328,-0.898,0.129
3/24/2023 12:04:11.550,-0.234,-0.875,0.18
3/24/2023 12:04:11.560,-0.172,-0.91,0.238
3/24/2023 12:04:11.570,-0.156,-0.957,0.281
3/24/2023 12:04:11.580,-0.184,-1.008,0.246
3/24/2023 12:04:11.590,-0.207,-1.059,0.207
3/24/2023 12:04:11.600,-0.254,-1.082,0.168
3/24/2023 12:04:11.610,-0.297,-1.047,0.152
3/24/2023 12:04:11.620,-0.34,-0.988,0.164
3/24/2023 12:04:11.630,-0.383,-0.926,0.156
3/24/2023 12:04:11.640,-0.406,-0.855,0.145
3/24/2023 12:04:11.650,-0.398,-0.816,0.133
3/24/2023 12:04:11.660,-0.375,-0.813,0.113
3/24/2023 12:04:11.670,-0.348,-0.82,0.094
3/24/2023 12:04:11.680,-0.324,-0.809,0.066
3/24/2023 12:04:11.690,-0.309,-0.781,0.051
3/24/2023 12:04:11.700,-0.309,-0.742,0.035
3/24/2023 12:04:11.710,-0.313,-0.695,0.031
3/24/2023 12:04:11.720,-0.313,-0.652,0.016
3/24/2023 12:04:11.730,-0.297,-0.609,0.008
3/24/2023 12:04:11.740,-0.266,-0.578,0.012
3/24/2023 12:04:11.750,-0.219,-0.555,0.012
3/24/2023 12:04:11.760,-0.164,-0.527,0.02
3/24/2023 12:04:11.770,-0.09,-0.531,0.055
3/24/2023 12:04:11.780,-0.027,-0.535,0.051
3/24/2023 12:04:11.790,-0.008,-0.523,0.039
3/24/2023 12:04:11.800,0.055,-0.543,0.07
3/24/2023 12:04:11.810,0.117,-0.535,0.109
3/24/2023 12:04:11.820,0.152,-0.523,0.109
3/24/2023 12:04:11.830,0.16,-0.508,0.09
3/24/2023 12:04:11.840,0.137,-0.535,0.07
3/24/2023 12:04:11.850,0.098,-0.629,0.043
3/24/2023 12:04:11.860,0.043,-0.75,-0.012
3/24/2023 12:04:11.870,-0.008,-0.891,0.004
3/24/2023 12:04:11.880,-0.047,-1.004,-0.016
3/24/2023 12:04:11.890,-0.047,-1.078,-0.039
3/24/2023 12:04:11.900,0,-1.141,-0.004
3/24/2023 12:04:11.910,0.109,-1.164,0.031
3/24/2023 12:04:11.920,0.309,-1.129,0.027
3/24/2023 12:04:11.930,0.547,-1.105,0.043
3/24/2023 12:04:11.940,0.789,-1.141,0.059
3/24/2023 12:04:11.950,0.949,-1.262,0.047
3/24/2023 12:04:11.960,1,-1.406,0.008
3/24/2023 12:04:11.970,0.926,-1.52,-0.023
3/24/2023 12:04:11.980,0.738,-1.574,-0.039
3/24/2023 12:04:11.990,0.477,-1.578,-0.027
3/24/2023 12:04:12.000,0.281,-1.574,-0.043
3/24/2023 12:04:12.010,0.168,-1.574,-0.027
3/24/2023 12:04:12.020,0.016,-1.57,-0.016
3/24/2023 12:04:12.030,-0.137,-1.523,0.012
3/24/2023 12:04:12.040,-0.352,-1.473,0.098
3/24/2023 12:04:12.050,-0.57,-1.398,0.137
3/24/2023 12:04:12.060,-0.738,-1.23,0.07
3/24/2023 12:04:12.070,-0.84,-1.047,0.008
3/24/2023 12:04:12.080,-0.914,-0.898,-0.168
3/24/2023 12:04:12.090,-0.922,-0.828,-0.234
3/24/2023 12:04:12.100,-0.883,-0.953,-0.18
3/24/2023 12:04:12.110,-0.828,-1.176,-0.094
3/24/2023 12:04:12.120,-0.754,-1.402,-0.023
3/24/2023 12:04:12.130,-0.676,-1.605,0.012
3/24/2023 12:04:12.140,-0.57,-1.723,0.02
3/24/2023 12:04:12.150,-0.426,-1.734,0.012
3/24/2023 12:04:12.160,-0.27,-1.652,0.02
3/24/2023 12:04:12.170,-0.145,-1.488,0.031
3/24/2023 12:04:12.180,-0.051,-1.293,0.035
3/24/2023 12:04:12.190,0.023,-1.117,0.059
3/24/2023 12:04:12.200,0.047,-0.961,0.078
3/24/2023 12:04:12.210,0.031,-0.816,0.063
3/24/2023 12:04:12.220,0,-0.703,0.031
3/24/2023 12:04:12.230,-0.012,-0.637,0.012
3/24/2023 12:04:12.240,0.004,-0.605,0.016
3/24/2023 12:04:12.250,0.043,-0.578,0.012
3/24/2023 12:04:12.260,0.098,-0.531,0.023
3/24/2023 12:04:12.270,0.121,-0.477,0.043
3/24/2023 12:04:12.280,0.125,-0.402,0.055
3/24/2023 12:04:12.290,0.109,-0.309,0.07
3/24/2023 12:04:12.300,0.082,-0.227,0.098
3/24/2023 12:04:12.310,0.063,-0.156,0.121
3/24/2023 12:04:12.320,0.063,-0.109,0.145
3/24/2023 12:04:12.330,0.066,-0.094,0.172
3/24/2023 12:04:12.340,0.074,-0.125,0.191
3/24/2023 12:04:12.350,0.098,-0.184,0.199
3/24/2023 12:04:12.360,0.133,-0.293,0.223
3/24/2023 12:04:12.370,0.148,-0.469,0.285
3/24/2023 12:04:12.380,0.125,-0.617,0.207
3/24/2023 12:04:12.390,0.125,-0.738,0.109
3/24/2023 12:04:12.400,0.129,-0.895,0.086
3/24/2023 12:04:12.410,0.125,-1.047,0.051
3/24/2023 12:04:12.420,0.145,-1.172,0.047
3/24/2023 12:04:12.430,0.129,-1.285,0.043
3/24/2023 12:04:12.440,0.094,-1.387,0.031
3/24/2023 12:04:12.450,0.09,-1.508,0.051
3/24/2023 12:04:12.460,0.133,-1.551,0.043
3/24/2023 12:04:12.470,0.156,-1.543,0
3/24/2023 12:04:12.480,0.219,-1.539,0.043
3/24/2023 12:04:12.490,0.293,-1.617,0.258
3/24/2023 12:04:12.500,0.277,-1.723,0.395
3/24/2023 12:04:12.510,0.152,-1.871,0.383
3/24/2023 12:04:12.520,-0.082,-2.059,0.121
3/24/2023 12:04:12.530,-0.227,-2.211,-0.184
3/24/2023 12:04:12.540,-0.105,-2.18,-0.078
3/24/2023 12:04:12.550,-0.074,-1.805,0.094
3/24/2023 12:04:12.560,-0.105,-1.332,0.211
3/24/2023 12:04:12.570,-0.031,-0.992,0.309
3/24/2023 12:04:12.580,-0.055,-0.828,0.387
3/24/2023 12:04:12.590,-0.086,-0.75,0.371
3/24/2023 12:04:12.600,-0.121,-0.707,0.375
3/24/2023 12:04:12.610,-0.215,-0.75,0.336
3/24/2023 12:04:12.620,-0.324,-0.871,0.281
3/24/2023 12:04:12.630,-0.426,-0.992,0.18
3/24/2023 12:04:12.640,-0.504,-1.113,0.137
3/24/2023 12:04:12.650,-0.535,-1.145,0.117
3/24/2023 12:04:12.660,-0.512,-1.066,0.102
3/24/2023 12:04:12.670,-0.453,-0.949,0.129
3/24/2023 12:04:12.680,-0.379,-0.855,0.168
3/24/2023 12:04:12.690,-0.301,-0.797,0.211
3/24/2023 12:04:12.700,-0.246,-0.766,0.227
3/24/2023 12:04:12.710,-0.203,-0.762,0.223
3/24/2023 12:04:12.720,-0.188,-0.777,0.199
3/24/2023 12:04:12.730,-0.211,-0.781,0.156
3/24/2023 12:04:12.740,-0.258,-0.77,0.117
3/24/2023 12:04:12.750,-0.305,-0.754,0.086
3/24/2023 12:04:12.760,-0.34,-0.723,0.063
3/24/2023 12:04:12.770,-0.348,-0.68,0.047
3/24/2023 12:04:12.780,-0.332,-0.629,0.035
3/24/2023 12:04:12.790,-0.293,-0.586,0.016
3/24/2023 12:04:12.800,-0.23,-0.543,0
3/24/2023 12:04:12.810,-0.148,-0.52,0.008
3/24/2023 12:04:12.820,-0.063,-0.508,0.012
3/24/2023 12:04:12.830,0.012,-0.527,0.023
3/24/2023 12:04:12.840,0.043,-0.551,0.027
3/24/2023 12:04:12.850,0.063,-0.559,0.02
3/24/2023 12:04:12.860,0.074,-0.566,0.016
3/24/2023 12:04:12.870,0.098,-0.605,0.039
3/24/2023 12:04:12.880,0.105,-0.617,0.031
3/24/2023 12:04:12.890,0.113,-0.645,0.035
3/24/2023 12:04:12.900,0.121,-0.707,0.039
3/24/2023 12:04:12.910,0.109,-0.785,0.047
3/24/2023 12:04:12.920,0.086,-0.859,0.07
3/24/2023 12:04:12.930,0.066,-0.922,0.016
3/24/2023 12:04:12.940,0.082,-0.918,-0.059
3/24/2023 12:04:12.950,0.145,-0.941,-0.012
3/24/2023 12:04:12.960,0.227,-1.008,0.055
3/24/2023 12:04:12.970,0.309,-1.09,0.039
3/24/2023 12:04:12.980,0.418,-1.133,-0.008
3/24/2023 12:04:12.990,0.586,-1.164,-0.023
3/24/2023 12:04:13.000,0.75,-1.219,-0.047
3/24/2023 12:04:13.010,0.855,-1.324,-0.066
3/24/2023 12:04:13.020,0.855,-1.441,-0.102
3/24/2023 12:04:13.030,0.754,-1.496,-0.133
3/24/2023 12:04:13.040,0.559,-1.516,-0.09
3/24/2023 12:04:13.050,0.34,-1.539,-0.047
3/24/2023 12:04:13.060,0.195,-1.563,-0.027
3/24/2023 12:04:13.070,0.035,-1.559,-0.035
3/24/2023 12:04:13.080,-0.125,-1.516,-0.043
3/24/2023 12:04:13.090,-0.301,-1.461,0.008
3/24/2023 12:04:13.100,-0.496,-1.426,0.074
3/24/2023 12:04:13.110,-0.684,-1.363,0.047
3/24/2023 12:04:13.120,-0.813,-1.211,-0.055
3/24/2023 12:04:13.130,-0.863,-1.031,-0.145
3/24/2023 12:04:13.140,-0.871,-0.914,-0.199
3/24/2023 12:04:13.150,-0.867,-0.918,-0.215
3/24/2023 12:04:13.160,-0.84,-1.027,-0.172
3/24/2023 12:04:13.170,-0.781,-1.195,-0.098
3/24/2023 12:04:13.180,-0.691,-1.375,-0.016
3/24/2023 12:04:13.190,-0.594,-1.531,0.031
3/24/2023 12:04:13.200,-0.492,-1.629,0.055
3/24/2023 12:04:13.210,-0.359,-1.633,0.066
3/24/2023 12:04:13.220,-0.211,-1.559,0.09
3/24/2023 12:04:13.230,-0.094,-1.449,0.109
3/24/2023 12:04:13.240,0,-1.285,0.074
3/24/2023 12:04:13.250,0.066,-1.094,0.02
3/24/2023 12:04:13.260,0.121,-0.93,-0.012
3/24/2023 12:04:13.270,0.121,-0.816,-0.016
3/24/2023 12:04:13.280,0.117,-0.762,0.012
3/24/2023 12:04:13.290,0.102,-0.707,0.012
3/24/2023 12:04:13.300,0.086,-0.652,-0.004
3/24/2023 12:04:13.310,0.137,-0.625,0.047
3/24/2023 12:04:13.320,0.18,-0.594,0.074
3/24/2023 12:04:13.330,0.133,-0.492,0.039
3/24/2023 12:04:13.340,0.105,-0.41,0.051
3/24/2023 12:04:13.350,0.094,-0.355,0.09
3/24/2023 12:04:13.360,0.07,-0.316,0.121
3/24/2023 12:04:13.370,0.059,-0.281,0.152
3/24/2023 12:04:13.380,0.055,-0.262,0.168
3/24/2023 12:04:13.390,0.043,-0.262,0.18
3/24/2023 12:04:13.400,0.043,-0.289,0.184
3/24/2023 12:04:13.410,0.047,-0.332,0.168
3/24/2023 12:04:13.420,0.07,-0.398,0.176
3/24/2023 12:04:13.430,0.102,-0.523,0.227
3/24/2023 12:04:13.440,0.117,-0.609,0.168
3/24/2023 12:04:13.450,0.168,-0.68,0.148
3/24/2023 12:04:13.460,0.207,-0.785,0.16
3/24/2023 12:04:13.470,0.207,-0.879,0.152
3/24/2023 12:04:13.480,0.188,-0.922,0.074
3/24/2023 12:04:13.490,0.141,-1.016,0.035
3/24/2023 12:04:13.500,0.051,-1.191,-0.008
3/24/2023 12:04:13.510,-0.035,-1.414,-0.02
3/24/2023 12:04:13.520,-0.105,-1.57,-0.035
3/24/2023 12:04:13.530,-0.133,-1.691,-0.023
3/24/2023 12:04:13.540,-0.047,-1.727,0.051
3/24/2023 12:04:13.550,0.184,-1.625,0.176
3/24/2023 12:04:13.560,0.445,-1.477,0.371
3/24/2023 12:04:13.570,0.5,-1.449,0.445
3/24/2023 12:04:13.580,0.41,-1.598,0.41
3/24/2023 12:04:13.590,0.211,-1.789,0.172
3/24/2023 12:04:13.600,-0.047,-1.918,-0.105
3/24/2023 12:04:13.610,-0.145,-2.004,0
3/24/2023 12:04:13.620,-0.227,-1.801,0.113
3/24/2023 12:04:13.630,-0.258,-1.395,0.133
3/24/2023 12:04:13.640,-0.273,-1.082,0.215
3/24/2023 12:04:13.650,-0.32,-0.941,0.219
3/24/2023 12:04:13.660,-0.305,-0.82,0.203
3/24/2023 12:04:13.670,-0.25,-0.789,0.227
3/24/2023 12:04:13.680,-0.242,-0.855,0.254
3/24/2023 12:04:13.690,-0.258,-0.949,0.219
3/24/2023 12:04:13.700,-0.273,-1.012,0.168
3/24/2023 12:04:13.710,-0.273,-1.09,0.16
3/24/2023 12:04:13.720,-0.27,-1.113,0.16
3/24/2023 12:04:13.730,-0.277,-1.063,0.145
3/24/2023 12:04:13.740,-0.293,-0.969,0.141
3/24/2023 12:04:13.750,-0.313,-0.887,0.145
3/24/2023 12:04:13.760,-0.328,-0.816,0.156
3/24/2023 12:04:13.770,-0.336,-0.766,0.148
3/24/2023 12:04:13.780,-0.328,-0.742,0.141
3/24/2023 12:04:13.790,-0.32,-0.73,0.121
3/24/2023 12:04:13.800,-0.316,-0.707,0.094
3/24/2023 12:04:13.810,-0.32,-0.684,0.066
3/24/2023 12:04:13.820,-0.32,-0.664,0.047
3/24/2023 12:04:13.830,-0.305,-0.637,0.031
3/24/2023 12:04:13.840,-0.281,-0.617,0.023
3/24/2023 12:04:13.850,-0.242,-0.602,0.008
3/24/2023 12:04:13.860,-0.195,-0.586,-0.004
3/24/2023 12:04:13.870,-0.141,-0.578,-0.012
3/24/2023 12:04:13.880,-0.078,-0.594,-0.012
3/24/2023 12:04:13.890,-0.023,-0.602,-0.02
3/24/2023 12:04:13.900,0.008,-0.582,-0.027
3/24/2023 12:04:13.910,0.059,-0.625,-0.008
3/24/2023 12:04:13.920,0.105,-0.637,0.004
3/24/2023 12:04:13.930,0.141,-0.617,0.008
3/24/2023 12:04:13.940,0.145,-0.598,0.02
3/24/2023 12:04:13.950,0.156,-0.621,0.059
3/24/2023 12:04:13.960,0.156,-0.691,0.09
3/24/2023 12:04:13.970,0.102,-0.738,0.074
3/24/2023 12:04:13.980,0.008,-0.813,0.078
3/24/2023 12:04:13.990,-0.074,-0.895,-0.004
3/24/2023 12:04:14.000,-0.113,-0.949,-0.055
3/24/2023 12:04:14.010,-0.074,-1.012,-0.023
3/24/2023 12:04:14.020,0.027,-1.07,0.043
3/24/2023 12:04:14.030,0.152,-1.094,0.055
3/24/2023 12:04:14.040,0.344,-1.105,0.031
3/24/2023 12:04:14.050,0.559,-1.117,0.031
3/24/2023 12:04:14.060,0.766,-1.176,0.027
3/24/2023 12:04:14.070,0.914,-1.277,-0.008
3/24/2023 12:04:14.080,0.922,-1.402,-0.043
3/24/2023 12:04:14.090,0.813,-1.5,-0.086
3/24/2023 12:04:14.100,0.598,-1.57,-0.082
3/24/2023 12:04:14.110,0.398,-1.617,-0.082
3/24/2023 12:04:14.120,0.266,-1.617,-0.094
3/24/2023 12:04:14.130,0.098,-1.59,-0.078
3/24/2023 12:04:14.140,-0.082,-1.555,-0.043
3/24/2023 12:04:14.150,-0.277,-1.52,0.035
3/24/2023 12:04:14.160,-0.496,-1.449,0.109
3/24/2023 12:04:14.170,-0.688,-1.316,0.082
3/24/2023 12:04:14.180,-0.855,-1.125,-0.012
3/24/2023 12:04:14.190,-0.961,-0.926,-0.145
3/24/2023 12:04:14.200,-0.973,-0.801,-0.242
3/24/2023 12:04:14.210,-0.902,-0.855,-0.211
3/24/2023 12:04:14.220,-0.82,-1.055,-0.137
3/24/2023 12:04:14.230,-0.715,-1.266,-0.074
3/24/2023 12:04:14.240,-0.602,-1.449,-0.027
3/24/2023 12:04:14.250,-0.492,-1.574,0
3/24/2023 12:04:14.260,-0.363,-1.645,0.008
3/24/2023 12:04:14.270,-0.223,-1.668,0.023
3/24/2023 12:04:14.280,-0.105,-1.617,0.043
3/24/2023 12:04:14.290,-0.023,-1.496,0.031
3/24/2023 12:04:14.300,0.02,-1.336,0.039
3/24/2023 12:04:14.310,0.047,-1.141,0.043
3/24/2023 12:04:14.320,0.043,-0.957,0.023
3/24/2023 12:04:14.330,0.031,-0.816,-0.004
3/24/2023 12:04:14.340,0.008,-0.695,-0.023
3/24/2023 12:04:14.350,0.012,-0.625,-0.027
3/24/2023 12:04:14.360,0.035,-0.582,-0.02
3/24/2023 12:04:14.370,0.086,-0.559,0.02
3/24/2023 12:04:14.380,0.207,-0.609,0.129
3/24/2023 12:04:14.390,0.207,-0.563,0.109
3/24/2023 12:04:14.400,0.117,-0.445,0.051
3/24/2023 12:04:14.410,0.047,-0.359,0.059
3/24/2023 12:04:14.420,0.035,-0.277,0.094
3/24/2023 12:04:14.430,0.012,-0.227,0.113
3/24/2023 12:04:14.440,-0.008,-0.184,0.129
3/24/2023 12:04:14.450,-0.016,-0.164,0.133
3/24/2023 12:04:14.460,0.012,-0.18,0.16
3/24/2023 12:04:14.470,0.043,-0.234,0.215
3/24/2023 12:04:14.480,0.074,-0.344,0.273
3/24/2023 12:04:14.490,0.082,-0.461,0.27
3/24/2023 12:04:14.500,0.094,-0.582,0.199
3/24/2023 12:04:14.510,0.125,-0.691,0.145
3/24/2023 12:04:14.520,0.16,-0.82,0.141
3/24/2023 12:04:14.530,0.164,-0.973,0.16
3/24/2023 12:04:14.540,0.105,-1.133,0.055
3/24/2023 12:04:14.550,0.055,-1.371,0.008
3/24/2023 12:04:14.560,0.004,-1.625,-0.012
3/24/2023 12:04:14.570,-0.027,-1.816,-0.008
3/24/2023 12:04:14.580,-0.008,-1.867,-0.02
3/24/2023 12:04:14.590,0.105,-1.766,0.023
3/24/2023 12:04:14.600,0.328,-1.563,0.113
3/24/2023 12:04:14.610,0.57,-1.375,0.305
3/24/2023 12:04:14.620,0.629,-1.375,0.426
3/24/2023 12:04:14.630,0.523,-1.559,0.465
3/24/2023 12:04:14.640,0.242,-1.813,0.273
3/24/2023 12:04:14.650,-0.09,-2.023,-0.031
3/24/2023 12:04:14.660,-0.211,-2.082,-0.043
3/24/2023 12:04:14.670,-0.25,-1.793,0.137
3/24/2023 12:04:14.680,-0.313,-1.277,0.199
3/24/2023 12:04:14.690,-0.348,-0.902,0.254
3/24/2023 12:04:14.700,-0.367,-0.715,0.285
3/24/2023 12:04:14.710,-0.363,-0.637,0.297
3/24/2023 12:04:14.720,-0.371,-0.668,0.348
3/24/2023 12:04:14.730,-0.367,-0.781,0.363
3/24/2023 12:04:14.740,-0.379,-0.918,0.305
3/24/2023 12:04:14.750,-0.371,-1.027,0.227
3/24/2023 12:04:14.760,-0.355,-1.105,0.184
3/24/2023 12:04:14.770,-0.355,-1.102,0.152
3/24/2023 12:04:14.780,-0.359,-1.051,0.145
3/24/2023 12:04:14.790,-0.355,-0.992,0.172
3/24/2023 12:04:14.800,-0.344,-0.941,0.203
3/24/2023 12:04:14.810,-0.309,-0.887,0.223
3/24/2023 12:04:14.820,-0.289,-0.813,0.215
3/24/2023 12:04:14.830,-0.281,-0.77,0.188
3/24/2023 12:04:14.840,-0.285,-0.746,0.148
3/24/2023 12:04:14.850,-0.293,-0.715,0.113
3/24/2023 12:04:14.860,-0.301,-0.699,0.082
3/24/2023 12:04:14.870,-0.313,-0.676,0.043
3/24/2023 12:04:14.880,-0.316,-0.66,0.023
3/24/2023 12:04:14.890,-0.293,-0.652,0
3/24/2023 12:04:14.900,-0.238,-0.645,-0.008
3/24/2023 12:04:14.910,-0.18,-0.625,-0.023
3/24/2023 12:04:14.920,-0.113,-0.598,-0.039
3/24/2023 12:04:14.930,-0.023,-0.582,-0.027
3/24/2023 12:04:14.940,0.047,-0.566,-0.031
3/24/2023 12:04:14.950,0.082,-0.566,-0.023
3/24/2023 12:04:14.960,0.125,-0.617,0.004
3/24/2023 12:04:14.970,0.172,-0.633,0.035
3/24/2023 12:04:14.980,0.18,-0.617,0.059
3/24/2023 12:04:14.990,0.145,-0.602,0.074
3/24/2023 12:04:15.000,0.078,-0.609,0.078
3/24/2023 12:04:15.010,0.004,-0.648,0.051
3/24/2023 12:04:15.020,-0.059,-0.727,0.016
3/24/2023 12:04:15.030,-0.113,-0.848,-0.012
3/24/2023 12:04:15.040,-0.121,-0.938,-0.055
3/24/2023 12:04:15.050,-0.098,-1.004,-0.035
3/24/2023 12:04:15.060,-0.043,-1.066,-0.004
3/24/2023 12:04:15.070,0.039,-1.098,0.023
3/24/2023 12:04:15.080,0.176,-1.082,0.043
3/24/2023 12:04:15.090,0.379,-1.035,0.031
3/24/2023 12:04:15.100,0.629,-1.063,0.039
3/24/2023 12:04:15.110,0.859,-1.164,0.051
3/24/2023 12:04:15.120,0.984,-1.281,0.02
3/24/2023 12:04:15.130,0.992,-1.398,-0.016
3/24/2023 12:04:15.140,0.883,-1.473,-0.066
3/24/2023 12:04:15.150,0.711,-1.52,-0.102
3/24/2023 12:04:15.160,0.512,-1.508,-0.113
3/24/2023 12:04:15.170,0.375,-1.488,-0.102
3/24/2023 12:04:15.180,0.297,-1.504,-0.055
3/24/2023 12:04:15.190,0.184,-1.516,0.008
3/24/2023 12:04:15.200,0.023,-1.465,0.031
3/24/2023 12:04:15.210,-0.18,-1.367,0.07
3/24/2023 12:04:15.220,-0.406,-1.277,0.102
3/24/2023 12:04:15.230,-0.617,-1.184,0.066
3/24/2023 12:04:15.240,-0.766,-1.074,-0.023
3/24/2023 12:04:15.250,-0.832,-0.965,-0.125
3/24/2023 12:04:15.260,-0.84,-0.93,-0.16
3/24/2023 12:04:15.270,-0.824,-0.992,-0.145
3/24/2023 12:04:15.280,-0.785,-1.125,-0.098
3/24/2023 12:04:15.290,-0.73,-1.281,-0.047
3/24/2023 12:04:15.300,-0.656,-1.453,-0.004
3/24/2023 12:04:15.310,-0.566,-1.594,0.012
3/24/2023 12:04:15.320,-0.469,-1.676,0.016
3/24/2023 12:04:15.330,-0.34,-1.691,0.039
3/24/2023 12:04:15.340,-0.203,-1.617,0.063
3/24/2023 12:04:15.350,-0.117,-1.453,0.066
3/24/2023 12:04:15.360,-0.047,-1.242,0.055
3/24/2023 12:04:15.370,-0.016,-1.031,0.047
3/24/2023 12:04:15.380,-0.004,-0.84,0.012
3/24/2023 12:04:15.390,-0.012,-0.715,0.008
3/24/2023 12:04:15.400,-0.008,-0.672,0.039
3/24/2023 12:04:15.410,0.031,-0.672,0.07
3/24/2023 12:04:15.420,0.055,-0.66,0.043
3/24/2023 12:04:15.430,0.055,-0.582,0.004
3/24/2023 12:04:15.440,0.09,-0.527,0.004
3/24/2023 12:04:15.450,0.117,-0.477,0.023
3/24/2023 12:04:15.460,0.117,-0.43,0.051
3/24/2023 12:04:15.470,0.109,-0.387,0.086
3/24/2023 12:04:15.480,0.094,-0.328,0.121
3/24/2023 12:04:15.490,0.074,-0.273,0.145
3/24/2023 12:04:15.500,0.051,-0.23,0.152
3/24/2023 12:04:15.510,0.035,-0.223,0.156
3/24/2023 12:04:15.520,0.031,-0.258,0.16
3/24/2023 12:04:15.530,0.039,-0.324,0.164
3/24/2023 12:04:15.540,0.059,-0.426,0.184
3/24/2023 12:04:15.550,0.063,-0.563,0.227
3/24/2023 12:04:15.560,0.059,-0.676,0.156
3/24/2023 12:04:15.570,0.094,-0.746,0.082
3/24/2023 12:04:15.580,0.137,-0.836,0.09
3/24/2023 12:04:15.590,0.168,-0.938,0.137
3/24/2023 12:04:15.600,0.176,-1.008,0.082
3/24/2023 12:04:15.610,0.18,-1.086,0.051
3/24/2023 12:04:15.620,0.141,-1.195,-0.004
3/24/2023 12:04:15.630,0.074,-1.379,-0.023
3/24/2023 12:04:15.640,0.039,-1.551,-0.031
3/24/2023 12:04:15.650,0.059,-1.703,0
3/24/2023 12:04:15.660,0.109,-1.773,0.043
3/24/2023 12:04:15.670,0.258,-1.691,0.098
3/24/2023 12:04:15.680,0.465,-1.496,0.188
3/24/2023 12:04:15.690,0.59,-1.43,0.383
3/24/2023 12:04:15.700,0.543,-1.516,0.426
3/24/2023 12:04:15.710,0.348,-1.656,0.273
3/24/2023 12:04:15.720,0.031,-1.801,0.016
3/24/2023 12:04:15.730,-0.184,-1.91,0.012
3/24/2023 12:04:15.740,-0.371,-1.809,0.164
3/24/2023 12:04:15.750,-0.508,-1.449,0.211
3/24/2023 12:04:15.760,-0.523,-1.051,0.152
3/24/2023 12:04:15.770,-0.535,-0.844,0.109
3/24/2023 12:04:15.780,-0.512,-0.746,0.129
3/24/2023 12:04:15.790,-0.449,-0.793,0.211
3/24/2023 12:04:15.800,-0.379,-0.883,0.234
3/24/2023 12:04:15.810,-0.344,-0.945,0.273
3/24/2023 12:04:15.820,-0.309,-0.988,0.281
3/24/2023 12:04:15.830,-0.27,-1.031,0.254
3/24/2023 12:04:15.840,-0.227,-1.055,0.254
3/24/2023 12:04:15.850,-0.211,-1.023,0.277
3/24/2023 12:04:15.860,-0.23,-0.945,0.262
3/24/2023 12:04:15.870,-0.246,-0.875,0.223
3/24/2023 12:04:15.880,-0.258,-0.816,0.176
3/24/2023 12:04:15.890,-0.258,-0.793,0.141
3/24/2023 12:04:15.900,-0.25,-0.797,0.109
3/24/2023 12:04:15.910,-0.242,-0.797,0.074
3/24/2023 12:04:15.920,-0.23,-0.785,0.047
3/24/2023 12:04:15.930,-0.227,-0.738,0.031
3/24/2023 12:04:15.940,-0.23,-0.68,0.012
3/24/2023 12:04:15.950,-0.227,-0.617,0.004
3/24/2023 12:04:15.960,-0.215,-0.559,-0.008
3/24/2023 12:04:15.970,-0.168,-0.496,-0.012
3/24/2023 12:04:15.980,-0.098,-0.457,-0.004
3/24/2023 12:04:15.990,-0.031,-0.449,0.004
3/24/2023 12:04:16.000,0.02,-0.473,0
3/24/2023 12:04:16.010,0.051,-0.488,-0.02
3/24/2023 12:04:16.020,0.074,-0.488,-0.016
3/24/2023 12:04:16.030,0.082,-0.512,-0.004
3/24/2023 12:04:16.040,0.094,-0.566,0.027
3/24/2023 12:04:16.050,0.094,-0.629,0.09
3/24/2023 12:04:16.060,0.047,-0.668,0.074
3/24/2023 12:04:16.070,-0.031,-0.715,0.031
3/24/2023 12:04:16.080,-0.086,-0.805,-0.031
3/24/2023 12:04:16.090,-0.102,-0.895,-0.09
3/24/2023 12:04:16.100,-0.059,-0.973,-0.102
3/24/2023 12:04:16.110,0.02,-1.051,-0.059
3/24/2023 12:04:16.120,0.121,-1.098,-0.027
3/24/2023 12:04:16.130,0.238,-1.133,0.035
3/24/2023 12:04:16.140,0.355,-1.156,0.066
3/24/2023 12:04:16.150,0.527,-1.16,0.031
3/24/2023 12:04:16.160,0.715,-1.191,0.004
3/24/2023 12:04:16.170,0.855,-1.297,-0.023
3/24/2023 12:04:16.180,0.883,-1.426,-0.055
3/24/2023 12:04:16.190,0.805,-1.531,-0.113
3/24/2023 12:04:16.200,0.641,-1.555,-0.145
3/24/2023 12:04:16.210,0.426,-1.547,-0.098
3/24/2023 12:04:16.220,0.266,-1.555,-0.051
3/24/2023 12:04:16.230,0.113,-1.57,-0.016
3/24/2023 12:04:16.240,-0.082,-1.57,-0.008
3/24/2023 12:04:16.250,-0.289,-1.523,0.02
3/24/2023 12:04:16.260,-0.5,-1.449,0.063
3/24/2023 12:04:16.270,-0.66,-1.352,0.082
3/24/2023 12:04:16.280,-0.738,-1.191,0.02
3/24/2023 12:04:16.290,-0.758,-0.996,-0.09
3/24/2023 12:04:16.300,-0.738,-0.867,-0.121
3/24/2023 12:04:16.310,-0.727,-0.926,-0.113
3/24/2023 12:04:16.320,-0.738,-1.105,-0.094
3/24/2023 12:04:16.330,-0.719,-1.324,-0.055
3/24/2023 12:04:16.340,-0.668,-1.531,-0.02
3/24/2023 12:04:16.350,-0.59,-1.672,-0.012
3/24/2023 12:04:16.360,-0.469,-1.742,-0.016
3/24/2023 12:04:16.370,-0.316,-1.719,-0.004
3/24/2023 12:04:16.380,-0.172,-1.609,0.031
3/24/2023 12:04:16.390,-0.051,-1.445,0.059
3/24/2023 12:04:16.400,0.047,-1.258,0.082
3/24/2023 12:04:16.410,0.117,-1.07,0.078
3/24/2023 12:04:16.420,0.156,-0.91,0.059
3/24/2023 12:04:16.430,0.168,-0.785,0.035
3/24/2023 12:04:16.440,0.156,-0.703,0.016
3/24/2023 12:04:16.450,0.141,-0.641,0.004
3/24/2023 12:04:16.460,0.137,-0.582,0
3/24/2023 12:04:16.470,0.152,-0.52,0.008
3/24/2023 12:04:16.480,0.176,-0.453,0.035
3/24/2023 12:04:16.490,0.176,-0.379,0.063
3/24/2023 12:04:16.500,0.145,-0.293,0.086
3/24/2023 12:04:16.510,0.09,-0.223,0.109
3/24/2023 12:04:16.520,0.047,-0.164,0.125
3/24/2023 12:04:16.530,0.02,-0.129,0.137
3/24/2023 12:04:16.540,0.008,-0.109,0.152
3/24/2023 12:04:16.550,-0.008,-0.121,0.168
3/24/2023 12:04:16.560,-0.008,-0.172,0.168
3/24/2023 12:04:16.570,0.016,-0.266,0.172
3/24/2023 12:04:16.580,0.066,-0.406,0.207
3/24/2023 12:04:16.590,0.098,-0.57,0.211
3/24/2023 12:04:16.600,0.117,-0.684,0.137
3/24/2023 12:04:16.610,0.16,-0.797,0.07
3/24/2023 12:04:16.620,0.203,-0.953,0.109
3/24/2023 12:04:16.630,0.191,-1.094,0.047
3/24/2023 12:04:16.640,0.219,-1.254,0.039
3/24/2023 12:04:16.650,0.152,-1.41,-0.012
3/24/2023 12:04:16.660,0.102,-1.605,0.004
3/24/2023 12:04:16.670,0.078,-1.699,-0.004
3/24/2023 12:04:16.680,0.051,-1.691,-0.02
3/24/2023 12:04:16.690,0.082,-1.68,0.016
3/24/2023 12:04:16.700,0.207,-1.594,0.07
3/24/2023 12:04:16.710,0.406,-1.473,0.195
3/24/2023 12:04:16.720,0.512,-1.441,0.375
3/24/2023 12:04:16.730,0.504,-1.531,0.434
3/24/2023 12:04:16.740,0.324,-1.68,0.293
3/24/2023 12:04:16.750,-0.047,-1.82,0.016
3/24/2023 12:04:16.760,-0.332,-1.918,-0.063
3/24/2023 12:04:16.770,-0.531,-1.863,0.039
3/24/2023 12:04:16.780,-0.609,-1.473,0.086
3/24/2023 12:04:16.790,-0.586,-1.078,0.102
3/24/2023 12:04:16.800,-0.527,-0.875,0.125
3/24/2023 12:04:16.810,-0.426,-0.758,0.203
3/24/2023 12:04:16.820,-0.324,-0.746,0.277
3/24/2023 12:04:16.830,-0.254,-0.828,0.313
3/24/2023 12:04:16.840,-0.223,-0.953,0.332
3/24/2023 12:04:16.850,-0.242,-1.063,0.277
3/24/2023 12:04:16.860,-0.258,-1.121,0.203
3/24/2023 12:04:16.870,-0.27,-1.121,0.199
3/24/2023 12:04:16.880,-0.285,-1.051,0.223
3/24/2023 12:04:16.890,-0.309,-0.949,0.219
3/24/2023 12:04:16.900,-0.324,-0.855,0.188
3/24/2023 12:04:16.910,-0.313,-0.785,0.156
3/24/2023 12:04:16.920,-0.281,-0.766,0.148
3/24/2023 12:04:16.930,-0.246,-0.773,0.133
3/24/2023 12:04:16.940,-0.207,-0.758,0.113
3/24/2023 12:04:16.950,-0.18,-0.734,0.102
3/24/2023 12:04:16.960,-0.172,-0.703,0.09
3/24/2023 12:04:16.970,-0.184,-0.664,0.07
3/24/2023 12:04:16.980,-0.191,-0.629,0.051
3/24/2023 12:04:16.990,-0.188,-0.598,0.031
3/24/2023 12:04:17.000,-0.168,-0.559,0.016
3/24/2023 12:04:17.010,-0.125,-0.508,0
3/24/2023 12:04:17.020,-0.063,-0.457,-0.008
3/24/2023 12:04:17.030,0.008,-0.438,-0.004
3/24/2023 12:04:17.040,0.07,-0.469,0.008
3/24/2023 12:04:17.050,0.109,-0.504,0.02
3/24/2023 12:04:17.060,0.121,-0.555,0.023
3/24/2023 12:04:17.070,0.152,-0.605,0.051
3/24/2023 12:04:17.080,0.148,-0.652,0.074
3/24/2023 12:04:17.090,0.129,-0.652,0.059
3/24/2023 12:04:17.100,0.105,-0.68,0.066
3/24/2023 12:04:17.110,0.082,-0.711,0.07
3/24/2023 12:04:17.120,0.039,-0.758,0.066
3/24/2023 12:04:17.130,-0.004,-0.797,-0.039
3/24/2023 12:04:17.140,-0.012,-0.84,-0.07
3/24/2023 12:04:17.150,0.047,-0.922,-0.027
3/24/2023 12:04:17.160,0.156,-1.02,0.031
3/24/2023 12:04:17.170,0.277,-1.09,0.078
3/24/2023 12:04:17.180,0.414,-1.141,0.043
3/24/2023 12:04:17.190,0.551,-1.164,-0.008
3/24/2023 12:04:17.200,0.664,-1.219,-0.02
3/24/2023 12:04:17.210,0.754,-1.336,-0.035
3/24/2023 12:04:17.220,0.758,-1.465,-0.055
3/24/2023 12:04:17.230,0.645,-1.531,-0.078
3/24/2023 12:04:17.240,0.5,-1.527,-0.09
3/24/2023 12:04:17.250,0.328,-1.457,-0.063
3/24/2023 12:04:17.260,0.164,-1.434,-0.012
3/24/2023 12:04:17.270,0.043,-1.469,0.023
3/24/2023 12:04:17.280,-0.102,-1.52,0.035
3/24/2023 12:04:17.290,-0.23,-1.523,0.027
3/24/2023 12:04:17.300,-0.371,-1.473,0.063
3/24/2023 12:04:17.310,-0.496,-1.391,0.129
3/24/2023 12:04:17.320,-0.598,-1.254,0.105
3/24/2023 12:04:17.330,-0.629,-1.063,-0.016
3/24/2023 12:04:17.340,-0.621,-0.918,-0.066
3/24/2023 12:04:17.350,-0.617,-0.965,-0.059
3/24/2023 12:04:17.360,-0.633,-1.137,-0.066
3/24/2023 12:04:17.370,-0.668,-1.391,-0.027
3/24/2023 12:04:17.380,-0.676,-1.621,0.023
3/24/2023 12:04:17.390,-0.648,-1.773,0.02
3/24/2023 12:04:17.400,-0.574,-1.844,-0.008
3/24/2023 12:04:17.410,-0.434,-1.82,-0.012
3/24/2023 12:04:17.420,-0.273,-1.684,0.008
3/24/2023 12:04:17.430,-0.129,-1.477,0.047
3/24/2023 12:04:17.440,-0.004,-1.238,0.074
3/24/2023 12:04:17.450,0.078,-1.008,0.086
3/24/2023 12:04:17.460,0.117,-0.824,0.082
3/24/2023 12:04:17.470,0.094,-0.676,0.043
3/24/2023 12:04:17.480,0.02,-0.59,0.008
3/24/2023 12:04:17.490,0,-0.594,0.012
3/24/2023 12:04:17.500,0.023,-0.598,0.016
3/24/2023 12:04:17.510,0.059,-0.555,0.004
3/24/2023 12:04:17.520,0.043,-0.438,-0.027
3/24/2023 12:04:17.530,0.078,-0.348,0.012
3/24/2023 12:04:17.540,0.082,-0.27,0.055
3/24/2023 12:04:17.550,0.078,-0.195,0.082
3/24/2023 12:04:17.560,0.063,-0.141,0.105
3/24/2023 12:04:17.570,0.051,-0.113,0.121
3/24/2023 12:04:17.580,0.051,-0.117,0.133
3/24/2023 12:04:17.590,0.059,-0.168,0.152
3/24/2023 12:04:17.600,0.09,-0.254,0.172
3/24/2023 12:04:17.610,0.141,-0.352,0.18
3/24/2023 12:04:17.620,0.199,-0.469,0.242
3/24/2023 12:04:17.630,0.234,-0.598,0.234
3/24/2023 12:04:17.640,0.23,-0.676,0.145
3/24/2023 12:04:17.650,0.242,-0.762,0.098
3/24/2023 12:04:17.660,0.273,-0.883,0.125
3/24/2023 12:04:17.670,0.289,-1.039,0.164
3/24/2023 12:04:17.680,0.242,-1.195,0.176
3/24/2023 12:04:17.690,0.117,-1.344,0.098
3/24/2023 12:04:17.700,0.016,-1.477,0.02
3/24/2023 12:04:17.710,-0.063,-1.641,-0.027
3/24/2023 12:04:17.720,-0.164,-1.75,-0.082
3/24/2023 12:04:17.730,-0.117,-1.855,-0.023
3/24/2023 12:04:17.740,0.121,-1.785,0.063
3/24/2023 12:04:17.750,0.461,-1.566,0.148
3/24/2023 12:04:17.760,0.75,-1.332,0.27
3/24/2023 12:04:17.770,0.879,-1.281,0.477
3/24/2023 12:04:17.780,0.711,-1.418,0.543
3/24/2023 12:04:17.790,0.281,-1.539,0.285
3/24/2023 12:04:17.800,-0.137,-1.707,0.023
3/24/2023 12:04:17.810,-0.535,-1.914,0.004
3/24/2023 12:04:17.820,-0.902,-1.91,0.074
3/24/2023 12:04:17.830,-1.047,-1.516,-0.156
3/24/2023 12:04:17.840,-1.004,-1.121,-0.266
3/24/2023 12:04:17.850,-0.832,-0.902,-0.074
3/24/2023 12:04:17.860,-0.641,-0.762,0.145
3/24/2023 12:04:17.870,-0.438,-0.711,0.313
3/24/2023 12:04:17.880,-0.297,-0.766,0.383
3/24/2023 12:04:17.890,-0.172,-0.867,0.363
3/24/2023 12:04:17.900,-0.094,-0.969,0.328
3/24/2023 12:04:17.910,-0.094,-1.035,0.32
3/24/2023 12:04:17.920,-0.152,-1.043,0.277
3/24/2023 12:04:17.930,-0.25,-1.023,0.191
3/24/2023 12:04:17.940,-0.359,-1.008,0.09
3/24/2023 12:04:17.950,-0.438,-0.965,0.047
3/24/2023 12:04:17.960,-0.461,-0.926,0.039
3/24/2023 12:04:17.970,-0.445,-0.867,0.031
3/24/2023 12:04:17.980,-0.387,-0.805,0.047
3/24/2023 12:04:17.990,-0.324,-0.754,0.059
3/24/2023 12:04:18.000,-0.277,-0.691,0.07
3/24/2023 12:04:18.010,-0.227,-0.633,0.082
3/24/2023 12:04:18.020,-0.18,-0.574,0.082
3/24/2023 12:04:18.030,-0.141,-0.531,0.078
3/24/2023 12:04:18.040,-0.094,-0.488,0.066
3/24/2023 12:04:18.050,-0.051,-0.449,0.039
3/24/2023 12:04:18.060,-0.016,-0.426,0.02
3/24/2023 12:04:18.070,0.035,-0.441,0.02
3/24/2023 12:04:18.080,0.051,-0.461,-0.004
3/24/2023 12:04:18.090,0.066,-0.469,-0.031
3/24/2023 12:04:18.100,0.117,-0.504,-0.016
3/24/2023 12:04:18.110,0.125,-0.527,0.02
3/24/2023 12:04:18.120,0.094,-0.512,0.035
3/24/2023 12:04:18.130,0.098,-0.527,0.043
3/24/2023 12:04:18.140,0.098,-0.609,0.09
3/24/2023 12:04:18.150,0.031,-0.727,0.113
3/24/2023 12:04:18.160,-0.055,-0.871,0.098
3/24/2023 12:04:18.170,-0.07,-0.941,-0.082
3/24/2023 12:04:18.180,-0.035,-0.992,-0.125
3/24/2023 12:04:18.190,0.047,-1.074,-0.078
3/24/2023 12:04:18.200,0.18,-1.145,-0.02
3/24/2023 12:04:18.210,0.336,-1.164,-0.016
3/24/2023 12:04:18.220,0.551,-1.152,-0.02
3/24/2023 12:04:18.230,0.773,-1.18,0.008
3/24/2023 12:04:18.240,0.93,-1.285,0.016
3/24/2023 12:04:18.250,0.965,-1.414,-0.047
3/24/2023 12:04:18.260,0.828,-1.512,-0.117
3/24/2023 12:04:18.270,0.574,-1.574,-0.121
3/24/2023 12:04:18.280,0.375,-1.598,-0.109
3/24/2023 12:04:18.290,0.266,-1.605,-0.102
3/24/2023 12:04:18.300,0.125,-1.605,-0.063
3/24/2023 12:04:18.310,-0.039,-1.586,0.004
3/24/2023 12:04:18.320,-0.246,-1.594,0.094
3/24/2023 12:04:18.330,-0.492,-1.602,0.129
3/24/2023 12:04:18.340,-0.711,-1.523,0.051
3/24/2023 12:04:18.350,-0.887,-1.328,-0.055
3/24/2023 12:04:18.360,-1.016,-1.059,-0.199
3/24/2023 12:04:18.370,-1.039,-0.82,-0.293
3/24/2023 12:04:18.380,-0.969,-0.809,-0.254
3/24/2023 12:04:18.390,-0.828,-1,-0.141
3/24/2023 12:04:18.400,-0.68,-1.258,-0.043
3/24/2023 12:04:18.410,-0.539,-1.516,0.012
3/24/2023 12:04:18.420,-0.414,-1.723,0.051
3/24/2023 12:04:18.430,-0.313,-1.863,0.074
3/24/2023 12:04:18.440,-0.223,-1.887,0.098
3/24/2023 12:04:18.450,-0.164,-1.754,0.086
3/24/2023 12:04:18.460,-0.141,-1.469,-0.008
3/24/2023 12:04:18.470,-0.109,-1.156,-0.063
3/24/2023 12:04:18.480,-0.055,-0.926,-0.031
3/24/2023 12:04:18.490,-0.012,-0.797,0.012
3/24/2023 12:04:18.500,0.012,-0.715,0.016
3/24/2023 12:04:18.510,0.027,-0.652,0.008
3/24/2023 12:04:18.520,0.055,-0.613,-0.004
3/24/2023 12:04:18.530,0.105,-0.59,0.008
3/24/2023 12:04:18.540,0.16,-0.563,0.02
3/24/2023 12:04:18.550,0.203,-0.516,0.035
3/24/2023 12:04:18.560,0.219,-0.434,0.059
3/24/2023 12:04:18.570,0.195,-0.344,0.078
3/24/2023 12:04:18.580,0.16,-0.25,0.09
3/24/2023 12:04:18.590,0.102,-0.176,0.098
3/24/2023 12:04:18.600,0.059,-0.121,0.105
3/24/2023 12:04:18.610,0.047,-0.102,0.125
3/24/2023 12:04:18.620,0.035,-0.133,0.133
3/24/2023 12:04:18.630,0.039,-0.203,0.16
3/24/2023 12:04:18.640,0.063,-0.332,0.238
3/24/2023 12:04:18.650,0.07,-0.441,0.23
3/24/2023 12:04:18.660,0.094,-0.516,0.152
3/24/2023 12:04:18.670,0.152,-0.598,0.105
3/24/2023 12:04:18.680,0.207,-0.719,0.152
3/24/2023 12:04:18.690,0.223,-0.848,0.172
3/24/2023 12:04:18.700,0.215,-0.93,0.102
3/24/2023 12:04:18.710,0.168,-1.063,0.055
3/24/2023 12:04:18.720,0.082,-1.246,-0.035
3/24/2023 12:04:18.730,0,-1.516,-0.059
3/24/2023 12:04:18.740,-0.082,-1.727,-0.094
3/24/2023 12:04:18.750,-0.105,-1.863,-0.059
3/24/2023 12:04:18.760,-0.012,-1.887,0.047
3/24/2023 12:04:18.770,0.211,-1.68,0.121
3/24/2023 12:04:18.780,0.465,-1.379,0.215
3/24/2023 12:04:18.790,0.617,-1.285,0.418
3/24/2023 12:04:18.800,0.535,-1.41,0.496
3/24/2023 12:04:18.810,0.363,-1.613,0.359
3/24/2023 12:04:18.820,0.066,-1.813,0.008
3/24/2023 12:04:18.830,-0.152,-1.969,-0.07
3/24/2023 12:04:18.840,-0.313,-1.961,0.098
3/24/2023 12:04:18.850,-0.445,-1.621,0.176
3/24/2023 12:04:18.860,-0.449,-1.184,0.207
3/24/2023 12:04:18.870,-0.473,-0.938,0.145
3/24/2023 12:04:18.880,-0.449,-0.785,0.125
3/24/2023 12:04:18.890,-0.395,-0.773,0.172
3/24/2023 12:04:18.900,-0.344,-0.859,0.238
3/24/2023 12:04:18.910,-0.309,-0.941,0.25
3/24/2023 12:04:18.920,-0.281,-1.004,0.23
3/24/2023 12:04:18.930,-0.258,-1.066,0.207
3/24/2023 12:04:18.940,-0.258,-1.102,0.188
3/24/2023 12:04:18.950,-0.262,-1.055,0.172
3/24/2023 12:04:18.960,-0.305,-0.977,0.156
3/24/2023 12:04:18.970,-0.348,-0.906,0.145
3/24/2023 12:04:18.980,-0.367,-0.855,0.133
3/24/2023 12:04:18.990,-0.359,-0.82,0.121
3/24/2023 12:04:19.000,-0.34,-0.805,0.105
3/24/2023 12:04:19.010,-0.301,-0.793,0.094
3/24/2023 12:04:19.020,-0.266,-0.758,0.078
3/24/2023 12:04:19.030,-0.238,-0.711,0.066
3/24/2023 12:04:19.040,-0.227,-0.656,0.059
3/24/2023 12:04:19.050,-0.203,-0.613,0.059
3/24/2023 12:04:19.060,-0.184,-0.563,0.043
3/24/2023 12:04:19.070,-0.164,-0.504,0.016
3/24/2023 12:04:19.080,-0.125,-0.461,0.008
3/24/2023 12:04:19.090,-0.098,-0.434,0
3/24/2023 12:04:19.100,-0.066,-0.441,0
3/24/2023 12:04:19.110,0.016,-0.496,0.016
3/24/2023 12:04:19.120,0.035,-0.543,0.02
3/24/2023 12:04:19.130,0.055,-0.555,0.023
3/24/2023 12:04:19.140,0.07,-0.563,0.027
3/24/2023 12:04:19.150,0.07,-0.57,0.059
3/24/2023 12:04:19.160,0.051,-0.574,0.078
3/24/2023 12:04:19.170,0.043,-0.602,0.078
3/24/2023 12:04:19.180,0.023,-0.68,0.09
3/24/2023 12:04:19.190,-0.016,-0.789,0.059
3/24/2023 12:04:19.200,-0.039,-0.879,-0.039
3/24/2023 12:04:19.210,0.004,-0.957,-0.051
3/24/2023 12:04:19.220,0.086,-1.051,-0.004
3/24/2023 12:04:19.230,0.184,-1.121,0.016
3/24/2023 12:04:19.240,0.293,-1.18,0.047
3/24/2023 12:04:19.250,0.449,-1.191,0.023
3/24/2023 12:04:19.260,0.641,-1.156,-0.008
3/24/2023 12:04:19.270,0.816,-1.184,-0.043
3/24/2023 12:04:19.280,0.949,-1.305,-0.066
3/24/2023 12:04:19.290,0.969,-1.441,-0.078
3/24/2023 12:04:19.300,0.836,-1.539,-0.07
3/24/2023 12:04:19.310,0.594,-1.598,-0.055
3/24/2023 12:04:19.320,0.398,-1.633,-0.063
3/24/2023 12:04:19.330,0.207,-1.645,-0.078
3/24/2023 12:04:19.340,-0.02,-1.633,-0.086
3/24/2023 12:04:19.350,-0.254,-1.609,-0.039
3/24/2023 12:04:19.360,-0.504,-1.578,0.066
3/24/2023 12:04:19.370,-0.738,-1.496,0.113
3/24/2023 12:04:19.380,-0.891,-1.301,0.063
3/24/2023 12:04:19.390,-0.969,-1.035,-0.035
3/24/2023 12:04:19.400,-1.008,-0.773,-0.172
3/24/2023 12:04:19.410,-0.988,-0.68,-0.246
3/24/2023 12:04:19.420,-0.922,-0.828,-0.223
3/24/2023 12:04:19.430,-0.805,-1.086,-0.148
3/24/2023 12:04:19.440,-0.672,-1.371,-0.07
3/24/2023 12:04:19.450,-0.543,-1.656,-0.008
3/24/2023 12:04:19.460,-0.426,-1.859,0.023
3/24/2023 12:04:19.470,-0.277,-1.945,0.051
3/24/2023 12:04:19.480,-0.137,-1.859,0.09
3/24/2023 12:04:19.490,-0.039,-1.66,0.086
3/24/2023 12:04:19.500,0.012,-1.387,0.031
3/24/2023 12:04:19.510,0.082,-1.125,0.012
3/24/2023 12:04:19.520,0.125,-0.906,0.008
3/24/2023 12:04:19.530,0.141,-0.781,0.039
3/24/2023 12:04:19.540,0.129,-0.707,0.047
3/24/2023 12:04:19.550,0.09,-0.613,0.008
3/24/2023 12:04:19.560,0.086,-0.578,-0.008
3/24/2023 12:04:19.570,0.105,-0.535,-0.031
3/24/2023 12:04:19.580,0.137,-0.531,-0.008
3/24/2023 12:04:19.590,0.258,-0.57,0.098
3/24/2023 12:04:19.600,0.234,-0.492,0.082
3/24/2023 12:04:19.610,0.125,-0.375,0.051
3/24/2023 12:04:19.620,0.086,-0.289,0.098
3/24/2023 12:04:19.630,0.086,-0.227,0.141
3/24/2023 12:04:19.640,0.082,-0.172,0.145
3/24/2023 12:04:19.650,0.078,-0.133,0.137
3/24/2023 12:04:19.660,0.078,-0.121,0.148
3/24/2023 12:04:19.670,0.078,-0.172,0.168
3/24/2023 12:04:19.680,0.094,-0.293,0.254
3/24/2023 12:04:19.690,0.09,-0.461,0.285
3/24/2023 12:04:19.700,0.063,-0.59,0.219
3/24/2023 12:04:19.710,0.051,-0.699,0.117
3/24/2023 12:04:19.720,0.059,-0.836,0.109
3/24/2023 12:04:19.730,0.047,-0.961,0.066
3/24/2023 12:04:19.740,0.051,-1.047,0.016
3/24/2023 12:04:19.750,0.02,-1.164,-0.004
3/24/2023 12:04:19.760,-0.02,-1.355,0.012
3/24/2023 12:04:19.770,-0.012,-1.543,0.02
3/24/2023 12:04:19.780,-0.023,-1.625,-0.023
3/24/2023 12:04:19.790,0.031,-1.691,-0.012
3/24/2023 12:04:19.800,0.168,-1.641,0.031
3/24/2023 12:04:19.810,0.375,-1.516,0.105
3/24/2023 12:04:19.820,0.574,-1.422,0.34
3/24/2023 12:04:19.830,0.563,-1.465,0.441
3/24/2023 12:04:19.840,0.43,-1.602,0.383
3/24/2023 12:04:19.850,0.152,-1.742,0.129
3/24/2023 12:04:19.860,-0.102,-1.859,-0.039
3/24/2023 12:04:19.870,-0.262,-1.918,0.098
3/24/2023 12:04:19.880,-0.41,-1.695,0.105
3/24/2023 12:04:19.890,-0.465,-1.293,0.105
3/24/2023 12:04:19.900,-0.461,-1.02,0.121
3/24/2023 12:04:19.910,-0.457,-0.844,0.121
3/24/2023 12:04:19.920,-0.398,-0.738,0.266
3/24/2023 12:04:19.930,-0.359,-0.754,0.371
3/24/2023 12:04:19.940,-0.355,-0.805,0.309
3/24/2023 12:04:19.950,-0.363,-0.91,0.25
3/24/2023 12:04:19.960,-0.391,-1.07,0.262
3/24/2023 12:04:19.970,-0.398,-1.16,0.23
3/24/2023 12:04:19.980,-0.383,-1.152,0.18
3/24/2023 12:04:19.990,-0.367,-1.082,0.16
3/24/2023 12:04:20.000,-0.375,-0.996,0.18
3/24/2023 12:04:20.010,-0.375,-0.902,0.195
3/24/2023 12:04:20.020,-0.348,-0.816,0.191
3/24/2023 12:04:20.030,-0.309,-0.801,0.18
3/24/2023 12:04:20.040,-0.277,-0.801,0.148
3/24/2023 12:04:20.050,-0.266,-0.797,0.105
3/24/2023 12:04:20.060,-0.266,-0.785,0.09
3/24/2023 12:04:20.070,-0.27,-0.773,0.082
3/24/2023 12:04:20.080,-0.273,-0.742,0.074
3/24/2023 12:04:20.090,-0.273,-0.695,0.074
3/24/2023 12:04:20.100,-0.281,-0.625,0.043
3/24/2023 12:04:20.110,-0.254,-0.574,0.031
3/24/2023 12:04:20.120,-0.195,-0.531,0.035
3/24/2023 12:04:20.130,-0.16,-0.48,0.012
3/24/2023 12:04:20.140,-0.094,-0.469,0
3/24/2023 12:04:20.150,-0.016,-0.508,0.016
3/24/2023 12:04:20.160,0.02,-0.535,-0.004
3/24/2023 12:04:20.170,0.063,-0.555,-0.02
3/24/2023 12:04:20.180,0.125,-0.605,0.02
3/24/2023 12:04:20.190,0.129,-0.652,0.051
3/24/2023 12:04:20.200,0.102,-0.66,0.031
3/24/2023 12:04:20.210,0.063,-0.664,0.012
3/24/2023 12:04:20.220,0.012,-0.707,0.016
3/24/2023 12:04:20.230,-0.051,-0.77,-0.004
3/24/2023 12:04:20.240,-0.082,-0.801,-0.102
3/24/2023 12:04:20.250,-0.086,-0.816,-0.09
3/24/2023 12:04:20.260,-0.027,-0.871,-0.035
3/24/2023 12:04:20.270,0.082,-0.902,0
3/24/2023 12:04:20.280,0.246,-0.941,0.066
3/24/2023 12:04:20.290,0.445,-0.965,0.078
3/24/2023 12:04:20.300,0.645,-0.977,0.055
3/24/2023 12:04:20.310,0.84,-1.047,0.043
3/24/2023 12:04:20.320,0.992,-1.188,0.02
3/24/2023 12:04:20.330,1.027,-1.355,-0.023
3/24/2023 12:04:20.340,0.914,-1.488,-0.086
3/24/2023 12:04:20.350,0.66,-1.559,-0.086
3/24/2023 12:04:20.360,0.375,-1.586,-0.055
3/24/2023 12:04:20.370,0.191,-1.578,-0.074
3/24/2023 12:04:20.380,0,-1.555,-0.063
3/24/2023 12:04:20.390,-0.211,-1.547,-0.016
3/24/2023 12:04:20.400,-0.414,-1.543,0.063
3/24/2023 12:04:20.410,-0.578,-1.512,0.16
3/24/2023 12:04:20.420,-0.719,-1.414,0.113
3/24/2023 12:04:20.430,-0.828,-1.25,0.004
3/24/2023 12:04:20.440,-0.914,-1.055,-0.121
3/24/2023 12:04:20.450,-0.965,-0.914,-0.238
3/24/2023 12:04:20.460,-0.949,-0.957,-0.242
3/24/2023 12:04:20.470,-0.863,-1.176,-0.168
3/24/2023 12:04:20.480,-0.734,-1.441,-0.098
3/24/2023 12:04:20.490,-0.59,-1.672,-0.043
3/24/2023 12:04:20.500,-0.453,-1.832,-0.008
3/24/2023 12:04:20.510,-0.313,-1.906,0.023
3/24/2023 12:04:20.520,-0.168,-1.898,0.074
3/24/2023 12:04:20.530,-0.074,-1.793,0.109
3/24/2023 12:04:20.540,-0.023,-1.566,0.078
3/24/2023 12:04:20.550,0,-1.297,0.027
3/24/2023 12:04:20.560,0.023,-1.035,-0.02
3/24/2023 12:04:20.570,0.035,-0.848,-0.027
3/24/2023 12:04:20.580,0.039,-0.742,0.02
3/24/2023 12:04:20.590,0.035,-0.656,0.027
3/24/2023 12:04:20.600,0.027,-0.535,-0.004
3/24/2023 12:04:20.610,0.043,-0.391,-0.039
3/24/2023 12:04:20.620,0.055,-0.328,-0.035
3/24/2023 12:04:20.630,0.094,-0.313,0.004
3/24/2023 12:04:20.640,0.156,-0.34,0.078
3/24/2023 12:04:20.650,0.215,-0.348,0.148
3/24/2023 12:04:20.660,0.164,-0.301,0.141
3/24/2023 12:04:20.670,0.074,-0.238,0.098
3/24/2023 12:04:20.680,0.023,-0.184,0.098
3/24/2023 12:04:20.690,0.027,-0.164,0.129
3/24/2023 12:04:20.700,0.031,-0.156,0.156
3/24/2023 12:04:20.710,0.047,-0.184,0.172
3/24/2023 12:04:20.720,0.07,-0.266,0.207
3/24/2023 12:04:20.730,0.098,-0.387,0.277
3/24/2023 12:04:20.740,0.09,-0.539,0.273
3/24/2023 12:04:20.750,0.066,-0.664,0.195
3/24/2023 12:04:20.760,0.07,-0.781,0.117
3/24/2023 12:04:20.770,0.094,-0.914,0.129
3/24/2023 12:04:20.780,0.109,-1.023,0.074
3/24/2023 12:04:20.790,0.113,-1.137,-0.008
3/24/2023 12:04:20.800,0.105,-1.297,-0.07
3/24/2023 12:04:20.810,0.098,-1.52,-0.059
3/24/2023 12:04:20.820,0.105,-1.707,-0.031
3/24/2023 12:04:20.830,0.102,-1.762,-0.02
3/24/2023 12:04:20.840,0.145,-1.723,0.016
3/24/2023 12:04:20.850,0.289,-1.586,0.094
3/24/2023 12:04:20.860,0.5,-1.383,0.164
3/24/2023 12:04:20.870,0.699,-1.219,0.293
3/24/2023 12:04:20.880,0.723,-1.266,0.453
3/24/2023 12:04:20.890,0.594,-1.438,0.461
3/24/2023 12:04:20.900,0.313,-1.66,0.289
3/24/2023 12:04:20.910,-0.055,-1.805,-0.039
3/24/2023 12:04:20.920,-0.293,-1.922,-0.043
3/24/2023 12:04:20.930,-0.508,-1.859,0.086
3/24/2023 12:04:20.940,-0.605,-1.477,0.07
3/24/2023 12:04:20.950,-0.641,-1.145,0.016
3/24/2023 12:04:20.960,-0.605,-0.957,-0.012
3/24/2023 12:04:20.970,-0.5,-0.82,0.074
3/24/2023 12:04:20.980,-0.398,-0.766,0.199
3/24/2023 12:04:20.990,-0.309,-0.75,0.305
3/24/2023 12:04:21.000,-0.266,-0.797,0.363
3/24/2023 12:04:21.010,-0.254,-0.871,0.336
3/24/2023 12:04:21.020,-0.258,-0.957,0.297
3/24/2023 12:04:21.030,-0.297,-1.023,0.277
3/24/2023 12:04:21.040,-0.371,-1.031,0.254
3/24/2023 12:04:21.050,-0.457,-1.008,0.223
3/24/2023 12:04:21.060,-0.516,-0.969,0.188
3/24/2023 12:04:21.070,-0.516,-0.922,0.164
3/24/2023 12:04:21.080,-0.457,-0.895,0.152
3/24/2023 12:04:21.090,-0.375,-0.883,0.137
3/24/2023 12:04:21.100,-0.293,-0.867,0.117
3/24/2023 12:04:21.110,-0.234,-0.84,0.098
3/24/2023 12:04:21.120,-0.184,-0.813,0.098
3/24/2023 12:04:21.130,-0.145,-0.766,0.094
3/24/2023 12:04:21.140,-0.141,-0.688,0.082
3/24/2023 12:04:21.150,-0.133,-0.629,0.063
3/24/2023 12:04:21.160,-0.105,-0.578,0.043
3/24/2023 12:04:21.170,-0.066,-0.523,0.016
3/24/2023 12:04:21.180,-0.043,-0.48,-0.004
3/24/2023 12:04:21.190,0.004,-0.461,-0.012
3/24/2023 12:04:21.200,0.039,-0.473,-0.02
3/24/2023 12:04:21.210,0.027,-0.457,-0.035
3/24/2023 12:04:21.220,0.043,-0.473,0.004
3/24/2023 12:04:21.230,0.066,-0.543,0.051
3/24/2023 12:04:21.240,0.043,-0.559,0.051
3/24/2023 12:04:21.250,0.02,-0.617,0.07
3/24/2023 12:04:21.260,-0.027,-0.672,0.055
3/24/2023 12:04:21.270,-0.063,-0.711,0.035
3/24/2023 12:04:21.280,-0.078,-0.789,0.016
3/24/2023 12:04:21.290,-0.051,-0.875,-0.02
3/24/2023 12:04:21.300,0.035,-0.922,-0.078
3/24/2023 12:04:21.310,0.156,-0.949,-0.027
3/24/2023 12:04:21.320,0.277,-0.988,0.031
3/24/2023 12:04:21.330,0.371,-1.039,0.055
3/24/2023 12:04:21.340,0.453,-1.086,0.016
3/24/2023 12:04:21.350,0.598,-1.109,-0.02
3/24/2023 12:04:21.360,0.734,-1.16,-0.031
3/24/2023 12:04:21.370,0.836,-1.266,-0.043
3/24/2023 12:04:21.380,0.836,-1.395,-0.059
3/24/2023 12:04:21.390,0.734,-1.473,-0.086
3/24/2023 12:04:21.400,0.563,-1.469,-0.109
3/24/2023 12:04:21.410,0.34,-1.48,-0.078
3/24/2023 12:04:21.420,0.184,-1.496,-0.078
3/24/2023 12:04:21.430,0.078,-1.508,-0.063
3/24/2023 12:04:21.440,-0.07,-1.512,-0.035
3/24/2023 12:04:21.450,-0.223,-1.508,0.02
3/24/2023 12:04:21.460,-0.391,-1.504,0.125
3/24/2023 12:04:21.470,-0.57,-1.461,0.176
3/24/2023 12:04:21.480,-0.73,-1.359,0.109
3/24/2023 12:04:21.490,-0.852,-1.172,-0.035
3/24/2023 12:04:21.500,-0.938,-0.961,-0.219
3/24/2023 12:04:21.510,-0.969,-0.879,-0.313
3/24/2023 12:04:21.520,-0.957,-0.949,-0.297
3/24/2023 12:04:21.530,-0.883,-1.141,-0.227
3/24/2023 12:04:21.540,-0.762,-1.375,-0.145
3/24/2023 12:04:21.550,-0.629,-1.598,-0.074
3/24/2023 12:04:21.560,-0.488,-1.785,-0.023
3/24/2023 12:04:21.570,-0.324,-1.91,0.027
3/24/2023 12:04:21.580,-0.164,-1.895,0.074
3/24/2023 12:04:21.590,-0.047,-1.727,0.09
3/24/2023 12:04:21.600,0.023,-1.473,0.063
3/24/2023 12:04:21.610,0.074,-1.211,0.023
3/24/2023 12:04:21.620,0.109,-0.992,-0.008
3/24/2023 12:04:21.630,0.121,-0.836,-0.02
3/24/2023 12:04:21.640,0.113,-0.746,-0.008
3/24/2023 12:04:21.650,0.109,-0.688,0.004
3/24/2023 12:04:21.660,0.113,-0.609,-0.023
3/24/2023 12:04:21.670,0.086,-0.512,-0.074
3/24/2023 12:04:21.680,0.129,-0.504,-0.035
3/24/2023 12:04:21.690,0.145,-0.457,-0.012
3/24/2023 12:04:21.700,0.168,-0.453,0.059
3/24/2023 12:04:21.710,0.207,-0.473,0.129
3/24/2023 12:04:21.720,0.102,-0.371,0.078
3/24/2023 12:04:21.730,-0.004,-0.273,0.047
3/24/2023 12:04:21.740,-0.016,-0.25,0.09
3/24/2023 12:04:21.750,-0.004,-0.203,0.121
3/24/2023 12:04:21.760,0.016,-0.18,0.156
3/24/2023 12:04:21.770,0.035,-0.188,0.184
3/24/2023 12:04:21.780,0.055,-0.238,0.195
3/24/2023 12:04:21.790,0.07,-0.34,0.238
3/24/2023 12:04:21.800,0.09,-0.496,0.293
3/24/2023 12:04:21.810,0.082,-0.629,0.23
3/24/2023 12:04:21.820,0.098,-0.723,0.168
3/24/2023 12:04:21.830,0.105,-0.844,0.203
3/24/2023 12:04:21.840,0.066,-0.953,0.133
3/24/2023 12:04:21.850,0.047,-1.012,0.016
3/24/2023 12:04:21.860,0.035,-1.105,-0.055
3/24/2023 12:04:21.870,0.016,-1.285,-0.074
3/24/2023 12:04:21.880,0,-1.551,-0.039
3/24/2023 12:04:21.890,0,-1.734,-0.02
3/24/2023 12:04:21.900,0.047,-1.781,0.016
3/24/2023 12:04:21.910,0.172,-1.699,0.078
3/24/2023 12:04:21.920,0.371,-1.488,0.176
3/24/2023 12:04:21.930,0.566,-1.313,0.363
3/24/2023 12:04:21.940,0.535,-1.328,0.5
3/24/2023 12:04:21.950,0.352,-1.539,0.43
3/24/2023 12:04:21.960,0.047,-1.781,0.102
3/24/2023 12:04:21.970,-0.258,-2.055,-0.051
3/24/2023 12:04:21.980,-0.426,-2.125,-0.008
3/24/2023 12:04:21.990,-0.492,-1.801,0.031
3/24/2023 12:04:22.000,-0.469,-1.332,0.098
3/24/2023 12:04:22.010,-0.43,-1.063,0.199
3/24/2023 12:04:22.020,-0.363,-0.93,0.219
3/24/2023 12:04:22.030,-0.266,-0.832,0.305
3/24/2023 12:04:22.040,-0.195,-0.805,0.371
3/24/2023 12:04:22.050,-0.195,-0.859,0.383
3/24/2023 12:04:22.060,-0.242,-0.938,0.301
3/24/2023 12:04:22.070,-0.316,-1.051,0.242
3/24/2023 12:04:22.080,-0.387,-1.121,0.188
3/24/2023 12:04:22.090,-0.434,-1.094,0.137
3/24/2023 12:04:22.100,-0.465,-1.012,0.117
3/24/2023 12:04:22.110,-0.477,-0.922,0.133
3/24/2023 12:04:22.120,-0.449,-0.84,0.16
3/24/2023 12:04:22.130,-0.379,-0.766,0.18
3/24/2023 12:04:22.140,-0.293,-0.723,0.184
3/24/2023 12:04:22.150,-0.219,-0.707,0.168
3/24/2023 12:04:22.160,-0.172,-0.695,0.141
3/24/2023 12:04:22.170,-0.152,-0.684,0.117
3/24/2023 12:04:22.180,-0.156,-0.676,0.094
3/24/2023 12:04:22.190,-0.176,-0.652,0.074
3/24/2023 12:04:22.200,-0.199,-0.621,0.055
3/24/2023 12:04:22.210,-0.203,-0.586,0.035
3/24/2023 12:04:22.220,-0.18,-0.531,0.012
3/24/2023 12:04:22.230,-0.129,-0.492,0
3/24/2023 12:04:22.240,-0.063,-0.5,-0.004
3/24/2023 12:04:22.250,-0.004,-0.527,-0.008
3/24/2023 12:04:22.260,0.043,-0.57,-0.004
3/24/2023 12:04:22.270,0.074,-0.617,0.004
3/24/2023 12:04:22.280,0.063,-0.625,-0.004
3/24/2023 12:04:22.290,0.031,-0.625,-0.012
3/24/2023 12:04:22.300,0.012,-0.648,0
3/24/2023 12:04:22.310,0.008,-0.664,0.031
3/24/2023 12:04:22.320,0.016,-0.691,0.035
3/24/2023 12:04:22.330,-0.012,-0.695,0.02
3/24/2023 12:04:22.340,-0.031,-0.734,0.059
3/24/2023 12:04:22.350,-0.016,-0.777,0.023
3/24/2023 12:04:22.360,0.055,-0.813,-0.004
3/24/2023 12:04:22.370,0.152,-0.883,0.031
3/24/2023 12:04:22.380,0.289,-0.973,0.063
3/24/2023 12:04:22.390,0.41,-1.121,0.07
3/24/2023 12:04:22.400,0.516,-1.207,0.012
3/24/2023 12:04:22.410,0.625,-1.258,-0.035
3/24/2023 12:04:22.420,0.727,-1.328,-0.051
3/24/2023 12:04:22.430,0.762,-1.441,-0.074
3/24/2023 12:04:22.440,0.707,-1.516,-0.105
3/24/2023 12:04:22.450,0.613,-1.516,-0.133
3/24/2023 12:04:22.460,0.496,-1.445,-0.129
3/24/2023 12:04:22.470,0.324,-1.387,-0.078
3/24/2023 12:04:22.480,0.164,-1.41,-0.027
3/24/2023 12:04:22.490,0.016,-1.492,0.023
3/24/2023 12:04:22.500,-0.18,-1.543,0.02
3/24/2023 12:04:22.510,-0.363,-1.516,0.035
3/24/2023 12:04:22.520,-0.547,-1.441,0.047
3/24/2023 12:04:22.530,-0.672,-1.32,-0.008
3/24/2023 12:04:22.540,-0.711,-1.156,-0.059
3/24/2023 12:04:22.550,-0.719,-0.988,-0.105
3/24/2023 12:04:22.560,-0.703,-0.895,-0.156
3/24/2023 12:04:22.570,-0.68,-0.977,-0.156
3/24/2023 12:04:22.580,-0.695,-1.184,-0.117
3/24/2023 12:04:22.590,-0.695,-1.434,-0.055
3/24/2023 12:04:22.600,-0.648,-1.645,-0.008
3/24/2023 12:04:22.610,-0.578,-1.777,-0.004
3/24/2023 12:04:22.620,-0.473,-1.824,0
3/24/2023 12:04:22.630,-0.309,-1.773,0.027
3/24/2023 12:04:22.640,-0.141,-1.621,0.063
3/24/2023 12:04:22.650,-0.016,-1.434,0.102
3/24/2023 12:04:22.660,0.082,-1.219,0.105
3/24/2023 12:04:22.670,0.141,-1.004,0.074
3/24/2023 12:04:22.680,0.148,-0.816,0.023
3/24/2023 12:04:22.690,0.098,-0.688,0
3/24/2023 12:04:22.700,0.066,-0.672,0.043
3/24/2023 12:04:22.710,0.039,-0.648,0.039
3/24/2023 12:04:22.720,0.02,-0.59,0.008
3/24/2023 12:04:22.730,0.113,-0.582,0.059
3/24/2023 12:04:22.740,0.168,-0.543,0.074
3/24/2023 12:04:22.750,0.109,-0.449,0.016
3/24/2023 12:04:22.760,0.051,-0.355,0.004
3/24/2023 12:04:22.770,0.043,-0.297,0.055
3/24/2023 12:04:22.780,0.051,-0.25,0.102
3/24/2023 12:04:22.790,0.039,-0.195,0.121
3/24/2023 12:04:22.800,0.035,-0.16,0.133
3/24/2023 12:04:22.810,0.043,-0.172,0.152
3/24/2023 12:04:22.820,0.055,-0.23,0.156
3/24/2023 12:04:22.830,0.078,-0.332,0.184
3/24/2023 12:04:22.840,0.125,-0.461,0.23
3/24/2023 12:04:22.850,0.129,-0.539,0.156
3/24/2023 12:04:22.860,0.176,-0.617,0.105
3/24/2023 12:04:22.870,0.219,-0.73,0.16
3/24/2023 12:04:22.880,0.219,-0.859,0.18
3/24/2023 12:04:22.890,0.199,-0.938,0.125
3/24/2023 12:04:22.900,0.148,-1.039,0.066
3/24/2023 12:04:22.910,0.07,-1.188,-0.012
3/24/2023 12:04:22.920,-0.004,-1.41,-0.039
3/24/2023 12:04:22.930,-0.051,-1.625,-0.039
3/24/2023 12:04:22.940,-0.051,-1.762,-0.02
3/24/2023 12:04:22.950,0.004,-1.773,0.012
3/24/2023 12:04:22.960,0.191,-1.652,0.105
3/24/2023 12:04:22.970,0.43,-1.418,0.211
3/24/2023 12:04:22.980,0.605,-1.234,0.383
3/24/2023 12:04:22.990,0.566,-1.309,0.473
3/24/2023 12:04:23.000,0.402,-1.508,0.367
3/24/2023 12:04:23.010,0.09,-1.715,0.082
3/24/2023 12:04:23.020,-0.215,-1.969,-0.043
3/24/2023 12:04:23.030,-0.402,-2.063,0.078
3/24/2023 12:04:23.040,-0.5,-1.773,0.078
3/24/2023 12:04:23.050,-0.473,-1.34,0.109
3/24/2023 12:04:23.060,-0.449,-1.086,0.164
3/24/2023 12:04:23.070,-0.441,-0.922,0.129
3/24/2023 12:04:23.080,-0.367,-0.797,0.152
3/24/2023 12:04:23.090,-0.32,-0.813,0.207
3/24/2023 12:04:23.100,-0.293,-0.902,0.23
3/24/2023 12:04:23.110,-0.285,-0.973,0.227
3/24/2023 12:04:23.120,-0.281,-1.02,0.234
3/24/2023 12:04:23.130,-0.273,-1.027,0.219
3/24/2023 12:04:23.140,-0.285,-1.008,0.188
3/24/2023 12:04:23.150,-0.324,-0.965,0.156
3/24/2023 12:04:23.160,-0.367,-0.934,0.145
3/24/2023 12:04:23.170,-0.406,-0.914,0.145
3/24/2023 12:04:23.180,-0.43,-0.902,0.141
3/24/2023 12:04:23.190,-0.41,-0.883,0.137
3/24/2023 12:04:23.200,-0.379,-0.863,0.133
3/24/2023 12:04:23.210,-0.348,-0.828,0.109
3/24/2023 12:04:23.220,-0.34,-0.773,0.074
3/24/2023 12:04:23.230,-0.309,-0.742,0.07
3/24/2023 12:04:23.240,-0.289,-0.684,0.051
3/24/2023 12:04:23.250,-0.254,-0.637,0.039
3/24/2023 12:04:23.260,-0.211,-0.609,0.012
3/24/2023 12:04:23.270,-0.16,-0.566,-0.004
3/24/2023 12:04:23.280,-0.066,-0.535,-0.008
3/24/2023 12:04:23.290,0.004,-0.516,-0.016
3/24/2023 12:04:23.300,0.082,-0.527,-0.016
3/24/2023 12:04:23.310,0.133,-0.535,-0.023
3/24/2023 12:04:23.320,0.156,-0.543,-0.027
3/24/2023 12:04:23.330,0.18,-0.574,-0.012
3/24/2023 12:04:23.340,0.195,-0.598,-0.012
3/24/2023 12:04:23.350,0.191,-0.582,-0.023
3/24/2023 12:04:23.360,0.211,-0.566,0.031
3/24/2023 12:04:23.370,0.211,-0.59,0.074
3/24/2023 12:04:23.380,0.176,-0.625,0.094
3/24/2023 12:04:23.390,0.117,-0.723,0.145
3/24/2023 12:04:23.400,0.035,-0.828,0.117
3/24/2023 12:04:23.410,-0.035,-0.887,0.02
3/24/2023 12:04:23.420,-0.055,-0.941,-0.02
3/24/2023 12:04:23.430,-0.031,-1.039,-0.027
3/24/2023 12:04:23.440,0.02,-1.148,-0.012
3/24/2023 12:04:23.450,0.133,-1.195,0
3/24/2023 12:04:23.460,0.305,-1.199,0.008
3/24/2023 12:04:23.470,0.508,-1.219,0.039
3/24/2023 12:04:23.480,0.668,-1.289,0.051
3/24/2023 12:04:23.490,0.762,-1.379,0.027
3/24/2023 12:04:23.500,0.746,-1.457,-0.035
3/24/2023 12:04:23.510,0.648,-1.484,-0.105
3/24/2023 12:04:23.520,0.504,-1.465,-0.109
3/24/2023 12:04:23.530,0.34,-1.48,-0.066
3/24/2023 12:04:23.540,0.23,-1.543,-0.027
3/24/2023 12:04:23.550,0.105,-1.59,-0.016
3/24/2023 12:04:23.560,-0.031,-1.578,-0.016
3/24/2023 12:04:23.570,-0.195,-1.516,0.035
3/24/2023 12:04:23.580,-0.379,-1.449,0.129
3/24/2023 12:04:23.590,-0.563,-1.359,0.113
3/24/2023 12:04:23.600,-0.719,-1.184,-0.02
3/24/2023 12:04:23.610,-0.797,-0.984,-0.098
3/24/2023 12:04:23.620,-0.844,-0.883,-0.148
3/24/2023 12:04:23.630,-0.844,-0.918,-0.152
3/24/2023 12:04:23.640,-0.816,-1.078,-0.113
3/24/2023 12:04:23.650,-0.758,-1.25,-0.074
3/24/2023 12:04:23.660,-0.672,-1.434,-0.039
3/24/2023 12:04:23.670,-0.566,-1.586,-0.031
3/24/2023 12:04:23.680,-0.438,-1.656,-0.031
3/24/2023 12:04:23.690,-0.285,-1.656,0.004
3/24/2023 12:04:23.700,-0.141,-1.602,0.055
3/24/2023 12:04:23.710,-0.047,-1.48,0.094
3/24/2023 12:04:23.720,0.008,-1.289,0.063
3/24/2023 12:04:23.730,0.035,-1.047,-0.016
3/24/2023 12:04:23.740,0.059,-0.875,0.012
3/24/2023 12:04:23.750,0.07,-0.836,0.086
3/24/2023 12:04:23.760,0.043,-0.766,0.063
3/24/2023 12:04:23.770,0.035,-0.664,0.016
3/24/2023 12:04:23.780,0.059,-0.586,0
3/24/2023 12:04:23.790,0.117,-0.52,0.008
3/24/2023 12:04:23.800,0.18,-0.449,0.023
3/24/2023 12:04:23.810,0.23,-0.379,0.051
3/24/2023 12:04:23.820,0.254,-0.328,0.09
3/24/2023 12:04:23.830,0.242,-0.297,0.125
3/24/2023 12:04:23.840,0.203,-0.262,0.141
3/24/2023 12:04:23.850,0.156,-0.227,0.152
3/24/2023 12:04:23.860,0.109,-0.191,0.141
3/24/2023 12:04:23.870,0.066,-0.172,0.129
3/24/2023 12:04:23.880,0.039,-0.176,0.121
3/24/2023 12:04:23.890,0.035,-0.215,0.129
3/24/2023 12:04:23.900,0.043,-0.305,0.129
3/24/2023 12:04:23.910,0.07,-0.445,0.188
3/24/2023 12:04:23.920,0.09,-0.625,0.195
3/24/2023 12:04:23.930,0.098,-0.758,0.117
3/24/2023 12:04:23.940,0.125,-0.93,0.191
3/24/2023 12:04:23.950,0.094,-1.098,0.156
3/24/2023 12:04:23.960,0.059,-1.195,0.074
3/24/2023 12:04:23.970,0.051,-1.316,0.031
3/24/2023 12:04:23.980,0.023,-1.445,-0.023
3/24/2023 12:04:23.990,0.016,-1.602,-0.02
3/24/2023 12:04:24.000,0.027,-1.668,-0.012
3/24/2023 12:04:24.010,0.102,-1.656,-0.027
3/24/2023 12:04:24.020,0.238,-1.574,-0.008
3/24/2023 12:04:24.030,0.445,-1.477,0.078
3/24/2023 12:04:24.040,0.648,-1.395,0.297
3/24/2023 12:04:24.050,0.648,-1.457,0.508
3/24/2023 12:04:24.060,0.504,-1.57,0.453
3/24/2023 12:04:24.070,0.199,-1.73,0.219
3/24/2023 12:04:24.080,-0.191,-1.941,-0.035
3/24/2023 12:04:24.090,-0.5,-2.098,-0.078
3/24/2023 12:04:24.100,-0.645,-1.945,0.066
3/24/2023 12:04:24.110,-0.668,-1.484,0.105
3/24/2023 12:04:24.120,-0.641,-1.063,0.086
3/24/2023 12:04:24.130,-0.563,-0.844,0.16
3/24/2023 12:04:24.140,-0.488,-0.746,0.285
3/24/2023 12:04:24.150,-0.402,-0.75,0.355
3/24/2023 12:04:24.160,-0.336,-0.836,0.371
3/24/2023 12:04:24.170,-0.316,-0.977,0.359
3/24/2023 12:04:24.180,-0.316,-1.094,0.297
3/24/2023 12:04:24.190,-0.336,-1.145,0.242
3/24/2023 12:04:24.200,-0.367,-1.109,0.203
3/24/2023 12:04:24.210,-0.402,-1.023,0.18
3/24/2023 12:04:24.220,-0.422,-0.93,0.18
3/24/2023 12:04:24.230,-0.398,-0.832,0.188
3/24/2023 12:04:24.240,-0.352,-0.766,0.176
3/24/2023 12:04:24.250,-0.301,-0.734,0.152
3/24/2023 12:04:24.260,-0.254,-0.727,0.129
3/24/2023 12:04:24.270,-0.234,-0.719,0.109
3/24/2023 12:04:24.280,-0.227,-0.699,0.09
3/24/2023 12:04:24.290,-0.227,-0.676,0.082
3/24/2023 12:04:24.300,-0.246,-0.648,0.063
3/24/2023 12:04:24.310,-0.266,-0.563,0.035
3/24/2023 12:04:24.320,-0.254,-0.512,0.016
3/24/2023 12:04:24.330,-0.215,-0.516,0
3/24/2023 12:04:24.340,-0.148,-0.527,-0.008
3/24/2023 12:04:24.350,-0.066,-0.523,-0.02
3/24/2023 12:04:24.360,0.02,-0.535,-0.016
3/24/2023 12:04:24.370,0.082,-0.559,-0.004
3/24/2023 12:04:24.380,0.141,-0.539,0.004
3/24/2023 12:04:24.390,0.207,-0.566,0.031
3/24/2023 12:04:24.400,0.25,-0.59,0.027
3/24/2023 12:04:24.410,0.258,-0.543,0
3/24/2023 12:04:24.420,0.258,-0.508,-0.004
3/24/2023 12:04:24.430,0.215,-0.57,0.016
3/24/2023 12:04:24.440,0.156,-0.711,0.066
3/24/2023 12:04:24.450,0.105,-0.867,0.102
3/24/2023 12:04:24.460,0.043,-0.934,-0.008
3/24/2023 12:04:24.470,0.047,-0.969,-0.008
3/24/2023 12:04:24.480,0.137,-1.043,0.07
3/24/2023 12:04:24.490,0.215,-1.066,0.082
3/24/2023 12:04:24.500,0.32,-1.031,0.043
3/24/2023 12:04:24.510,0.496,-1.035,0
3/24/2023 12:04:24.520,0.664,-1.09,-0.012
3/24/2023 12:04:24.530,0.797,-1.215,-0.012
3/24/2023 12:04:24.540,0.82,-1.352,-0.039
3/24/2023 12:04:24.550,0.73,-1.449,-0.098
3/24/2023 12:04:24.560,0.582,-1.484,-0.137
3/24/2023 12:04:24.570,0.379,-1.496,-0.113
3/24/2023 12:04:24.580,0.238,-1.504,-0.09
3/24/2023 12:04:24.590,0.156,-1.527,-0.07
3/24/2023 12:04:24.600,0.004,-1.551,-0.039
3/24/2023 12:04:24.610,-0.156,-1.566,0
3/24/2023 12:04:24.620,-0.328,-1.59,0.117
3/24/2023 12:04:24.630,-0.531,-1.57,0.18
3/24/2023 12:04:24.640,-0.727,-1.414,0.078
3/24/2023 12:04:24.650,-0.871,-1.164,-0.059
3/24/2023 12:04:24.660,-0.957,-0.918,-0.203
3/24/2023 12:04:24.670,-0.969,-0.816,-0.297
3/24/2023 12:04:24.680,-0.91,-0.93,-0.266
3/24/2023 12:04:24.690,-0.816,-1.168,-0.152
3/24/2023 12:04:24.700,-0.691,-1.398,-0.063
3/24/2023 12:04:24.710,-0.547,-1.578,-0.012
3/24/2023 12:04:24.720,-0.406,-1.688,0.023
3/24/2023 12:04:24.730,-0.262,-1.762,0.055
3/24/2023 12:04:24.740,-0.141,-1.754,0.066
3/24/2023 12:04:24.750,-0.043,-1.656,0.078
3/24/2023 12:04:24.760,0.012,-1.477,0.055
3/24/2023 12:04:24.770,0.051,-1.258,0.031
3/24/2023 12:04:24.780,0.086,-1.055,0.023
3/24/2023 12:04:24.790,0.102,-0.898,0.012
3/24/2023 12:04:24.800,0.098,-0.797,0.008
3/24/2023 12:04:24.810,0.082,-0.695,0
3/24/2023 12:04:24.820,0.109,-0.617,0.004
3/24/2023 12:04:24.830,0.137,-0.535,-0.004
3/24/2023 12:04:24.840,0.168,-0.48,0.016
3/24/2023 12:04:24.850,0.207,-0.457,0.063
3/24/2023 12:04:24.860,0.219,-0.41,0.082
3/24/2023 12:04:24.870,0.176,-0.32,0.09
3/24/2023 12:04:24.880,0.129,-0.262,0.109
3/24/2023 12:04:24.890,0.086,-0.23,0.129
3/24/2023 12:04:24.900,0.059,-0.207,0.137
3/24/2023 12:04:24.910,0.035,-0.207,0.137
3/24/2023 12:04:24.920,0.035,-0.219,0.141
3/24/2023 12:04:24.930,0.047,-0.242,0.145
3/24/2023 12:04:24.940,0.047,-0.293,0.148
3/24/2023 12:04:24.950,0.074,-0.379,0.168
3/24/2023 12:04:24.960,0.109,-0.535,0.242
3/24/2023 12:04:24.970,0.102,-0.703,0.215
3/24/2023 12:04:24.980,0.098,-0.816,0.152
3/24/2023 12:04:24.990,0.078,-0.926,0.172
3/24/2023 12:04:25.000,0,-1.043,0.09
3/24/2023 12:04:25.010,-0.039,-1.117,0.004
3/24/2023 12:04:25.020,-0.063,-1.207,-0.043
3/24/2023 12:04:25.030,-0.07,-1.355,-0.047
3/24/2023 12:04:25.040,-0.039,-1.516,0.012
3/24/2023 12:04:25.050,0.012,-1.57,0.035
3/24/2023 12:04:25.060,0.074,-1.547,0.035
3/24/2023 12:04:25.070,0.211,-1.5,0.078
3/24/2023 12:04:25.080,0.422,-1.434,0.215
3/24/2023 12:04:25.090,0.555,-1.414,0.418
3/24/2023 12:04:25.100,0.469,-1.539,0.523
3/24/2023 12:04:25.110,0.238,-1.719,0.375
3/24/2023 12:04:25.120,-0.094,-1.895,0.035
3/24/2023 12:04:25.130,-0.309,-2.02,-0.145
3/24/2023 12:04:25.140,-0.383,-1.953,-0.078
3/24/2023 12:04:25.150,-0.422,-1.578,-0.004
3/24/2023 12:04:25.160,-0.32,-1.148,0.164
3/24/2023 12:04:25.170,-0.266,-0.891,0.266
3/24/2023 12:04:25.180,-0.23,-0.754,0.324
3/24/2023 12:04:25.190,-0.188,-0.707,0.391
3/24/2023 12:04:25.200,-0.172,-0.773,0.418
3/24/2023 12:04:25.210,-0.234,-0.918,0.34
3/24/2023 12:04:25.220,-0.352,-1.082,0.219
3/24/2023 12:04:25.230,-0.449,-1.262,0.152
3/24/2023 12:04:25.240,-0.5,-1.32,0.105
3/24/2023 12:04:25.250,-0.508,-1.246,0.098
3/24/2023 12:04:25.260,-0.508,-1.129,0.105
3/24/2023 12:04:25.270,-0.492,-1.008,0.133
3/24/2023 12:04:25.280,-0.434,-0.887,0.164
3/24/2023 12:04:25.290,-0.348,-0.797,0.188
3/24/2023 12:04:25.300,-0.266,-0.758,0.184
3/24/2023 12:04:25.310,-0.215,-0.746,0.164
3/24/2023 12:04:25.320,-0.195,-0.742,0.121
3/24/2023 12:04:25.330,-0.195,-0.73,0.09
3/24/2023 12:04:25.340,-0.223,-0.695,0.07
3/24/2023 12:04:25.350,-0.25,-0.656,0.047
3/24/2023 12:04:25.360,-0.273,-0.621,0.031
3/24/2023 12:04:25.370,-0.262,-0.586,0.016
3/24/2023 12:04:25.380,-0.242,-0.551,-0.016
3/24/2023 12:04:25.390,-0.188,-0.512,-0.031
3/24/2023 12:04:25.400,-0.098,-0.52,-0.031
3/24/2023 12:04:25.410,0.008,-0.523,-0.008
3/24/2023 12:04:25.420,0.102,-0.578,0.016
3/24/2023 12:04:25.430,0.129,-0.602,0.012
3/24/2023 12:04:25.440,0.129,-0.594,-0.016
3/24/2023 12:04:25.450,0.172,-0.621,0.02
3/24/2023 12:04:25.460,0.211,-0.621,0.047
3/24/2023 12:04:25.470,0.188,-0.598,0.051
3/24/2023 12:04:25.480,0.141,-0.637,0.059
3/24/2023 12:04:25.490,0.082,-0.699,0.078
3/24/2023 12:04:25.500,0.02,-0.789,0.063
3/24/2023 12:04:25.510,-0.016,-0.859,0.043
3/24/2023 12:04:25.520,-0.035,-0.922,0.039
3/24/2023 12:04:25.530,-0.008,-0.938,0
3/24/2023 12:04:25.540,0.078,-0.969,0.039
3/24/2023 12:04:25.550,0.184,-0.996,0.074
3/24/2023 12:04:25.560,0.328,-0.988,0.047
3/24/2023 12:04:25.570,0.508,-0.996,0.039
3/24/2023 12:04:25.580,0.715,-1.082,0.047
3/24/2023 12:04:25.590,0.859,-1.234,0.023
3/24/2023 12:04:25.600,0.891,-1.395,-0.012
3/24/2023 12:04:25.610,0.797,-1.492,-0.047
3/24/2023 12:04:25.620,0.602,-1.508,-0.043
3/24/2023 12:04:25.630,0.387,-1.492,-0.051
3/24/2023 12:04:25.640,0.27,-1.461,-0.074
3/24/2023 12:04:25.650,0.137,-1.441,-0.082
3/24/2023 12:04:25.660,-0.039,-1.457,-0.066
3/24/2023 12:04:25.670,-0.215,-1.484,0.008
3/24/2023 12:04:25.680,-0.43,-1.508,0.102
3/24/2023 12:04:25.690,-0.625,-1.48,0.109
3/24/2023 12:04:25.700,-0.801,-1.344,0.027
3/24/2023 12:04:25.710,-0.934,-1.109,-0.117
3/24/2023 12:04:25.720,-1.004,-0.898,-0.266
3/24/2023 12:04:25.730,-0.973,-0.855,-0.32
3/24/2023 12:04:25.740,-0.848,-1.016,-0.246
3/24/2023 12:04:25.750,-0.699,-1.242,-0.156
3/24/2023 12:04:25.760,-0.566,-1.418,-0.098
3/24/2023 12:04:25.770,-0.445,-1.59,-0.043
3/24/2023 12:04:25.780,-0.332,-1.742,-0.004
3/24/2023 12:04:25.790,-0.242,-1.816,-0.004
3/24/2023 12:04:25.800,-0.141,-1.777,0.012
3/24/2023 12:04:25.810,-0.059,-1.648,0.02
3/24/2023 12:04:25.820,0,-1.461,0.008
3/24/2023 12:04:25.830,0.035,-1.262,-0.004
3/24/2023 12:04:25.840,0.078,-1.07,-0.012
3/24/2023 12:04:25.850,0.125,-0.93,-0.012
3/24/2023 12:04:25.860,0.148,-0.832,-0.012
3/24/2023 12:04:25.870,0.164,-0.789,0.004
3/24/2023 12:04:25.880,0.188,-0.762,0.012
3/24/2023 12:04:25.890,0.176,-0.727,0.004
3/24/2023 12:04:25.900,0.168,-0.688,-0.004
3/24/2023 12:04:25.910,0.16,-0.613,0.004
3/24/2023 12:04:25.920,0.121,-0.527,0.023
3/24/2023 12:04:25.930,0.051,-0.453,0.039
3/24/2023 12:04:25.940,0,-0.336,0.047
3/24/2023 12:04:25.950,-0.035,-0.246,0.07
3/24/2023 12:04:25.960,-0.063,-0.176,0.094
3/24/2023 12:04:25.970,-0.07,-0.121,0.125
3/24/2023 12:04:25.980,-0.063,-0.117,0.141
3/24/2023 12:04:25.990,-0.039,-0.152,0.164
3/24/2023 12:04:26.000,0.004,-0.215,0.195
3/24/2023 12:04:26.010,0.074,-0.309,0.23
3/24/2023 12:04:26.020,0.137,-0.426,0.25
3/24/2023 12:04:26.030,0.164,-0.563,0.246
3/24/2023 12:04:26.040,0.168,-0.68,0.164
3/24/2023 12:04:26.050,0.18,-0.758,0.078
3/24/2023 12:04:26.060,0.195,-0.863,0.102
3/24/2023 12:04:26.070,0.188,-1.004,0.102
3/24/2023 12:04:26.080,0.172,-1.125,0.078
3/24/2023 12:04:26.090,0.16,-1.25,0.043
3/24/2023 12:04:26.100,0.145,-1.41,0.031
3/24/2023 12:04:26.110,0.133,-1.59,0.012
3/24/2023 12:04:26.120,0.156,-1.719,-0.012
3/24/2023 12:04:26.130,0.223,-1.797,0.023
3/24/2023 12:04:26.140,0.316,-1.805,0.105
3/24/2023 12:04:26.150,0.441,-1.676,0.199
3/24/2023 12:04:26.160,0.508,-1.508,0.371
3/24/2023 12:04:26.170,0.414,-1.504,0.43
3/24/2023 12:04:26.180,0.188,-1.613,0.289
3/24/2023 12:04:26.190,-0.145,-1.813,0.082
3/24/2023 12:04:26.200,-0.426,-1.984,0.047
3/24/2023 12:04:26.210,-0.566,-1.867,0.098
3/24/2023 12:04:26.220,-0.625,-1.438,0.152
3/24/2023 12:04:26.230,-0.559,-1.035,0.191
3/24/2023 12:04:26.240,-0.508,-0.852,0.25
3/24/2023 12:04:26.250,-0.426,-0.766,0.277
3/24/2023 12:04:26.260,-0.297,-0.711,0.277
3/24/2023 12:04:26.270,-0.207,-0.773,0.328
3/24/2023 12:04:26.280,-0.168,-0.898,0.348
3/24/2023 12:04:26.290,-0.164,-1.008,0.355
3/24/2023 12:04:26.300,-0.195,-1.055,0.289
3/24/2023 12:04:26.310,-0.23,-1.051,0.18
3/24/2023 12:04:26.320,-0.289,-1.016,0.117
3/24/2023 12:04:26.330,-0.344,-0.969,0.102
3/24/2023 12:04:26.340,-0.371,-0.941,0.125
3/24/2023 12:04:26.350,-0.359,-0.902,0.145
3/24/2023 12:04:26.360,-0.309,-0.848,0.16
3/24/2023 12:04:26.370,-0.238,-0.797,0.168
3/24/2023 12:04:26.380,-0.195,-0.754,0.16
3/24/2023 12:04:26.390,-0.18,-0.727,0.133
3/24/2023 12:04:26.400,-0.188,-0.695,0.102
3/24/2023 12:04:26.410,-0.184,-0.668,0.098
3/24/2023 12:04:26.420,-0.188,-0.648,0.094
3/24/2023 12:04:26.430,-0.199,-0.605,0.078
3/24/2023 12:04:26.440,-0.16,-0.598,0.066
3/24/2023 12:04:26.450,-0.145,-0.578,0.059
3/24/2023 12:04:26.460,-0.105,-0.555,0.051
3/24/2023 12:04:26.470,-0.035,-0.547,0.047
3/24/2023 12:04:26.480,0.016,-0.543,0.035
3/24/2023 12:04:26.490,0.016,-0.539,0.02
3/24/2023 12:04:26.500,0.016,-0.535,0.023
3/24/2023 12:04:26.510,0.07,-0.582,0.02
3/24/2023 12:04:26.520,0.094,-0.605,-0.008
3/24/2023 12:04:26.530,0.117,-0.66,0.027
3/24/2023 12:04:26.540,0.117,-0.723,0.066
3/24/2023 12:04:26.550,0.102,-0.723,0.063
3/24/2023 12:04:26.560,0.07,-0.719,0.047
3/24/2023 12:04:26.570,0.043,-0.777,0.066
3/24/2023 12:04:26.580,0.02,-0.852,0.035
3/24/2023 12:04:26.590,0.004,-0.91,0
3/24/2023 12:04:26.600,0,-0.969,-0.012
3/24/2023 12:04:26.610,0.043,-1.016,0
3/24/2023 12:04:26.620,0.145,-1.07,0.055
3/24/2023 12:04:26.630,0.285,-1.121,0.055
3/24/2023 12:04:26.640,0.465,-1.156,0.023
3/24/2023 12:04:26.650,0.648,-1.215,0
3/24/2023 12:04:26.660,0.805,-1.309,-0.016
3/24/2023 12:04:26.670,0.852,-1.426,-0.051
3/24/2023 12:04:26.680,0.789,-1.5,-0.086
3/24/2023 12:04:26.690,0.668,-1.512,-0.102
3/24/2023 12:04:26.700,0.453,-1.473,-0.051
3/24/2023 12:04:26.710,0.211,-1.449,-0.039
3/24/2023 12:04:26.720,0.035,-1.488,-0.008
3/24/2023 12:04:26.730,-0.148,-1.551,0.035
3/24/2023 12:04:26.740,-0.332,-1.551,0.039
3/24/2023 12:04:26.750,-0.508,-1.457,0.043
3/24/2023 12:04:26.760,-0.645,-1.309,0.055
3/24/2023 12:04:26.770,-0.727,-1.137,0.023
3/24/2023 12:04:26.780,-0.746,-0.992,-0.059
3/24/2023 12:04:26.790,-0.707,-0.938,-0.074
3/24/2023 12:04:26.800,-0.691,-1.023,-0.078
3/24/2023 12:04:26.810,-0.703,-1.176,-0.078
3/24/2023 12:04:26.820,-0.711,-1.367,-0.07
3/24/2023 12:04:26.830,-0.668,-1.531,-0.039
3/24/2023 12:04:26.840,-0.598,-1.66,-0.031
3/24/2023 12:04:26.850,-0.52,-1.73,-0.059
3/24/2023 12:04:26.860,-0.363,-1.742,-0.047
3/24/2023 12:04:26.870,-0.203,-1.656,-0.023
3/24/2023 12:04:26.880,-0.074,-1.484,0.008
3/24/2023 12:04:26.890,0.035,-1.281,0.059
3/24/2023 12:04:26.900,0.09,-1.082,0.078
3/24/2023 12:04:26.910,0.09,-0.883,0.051
3/24/2023 12:04:26.920,0.016,-0.738,0
3/24/2023 12:04:26.930,0.008,-0.66,-0.004
3/24/2023 12:04:26.940,0.02,-0.598,-0.012
3/24/2023 12:04:26.950,0.098,-0.602,0.043
3/24/2023 12:04:26.960,0.152,-0.582,0.059
3/24/2023 12:04:26.970,0.184,-0.504,0.055
3/24/2023 12:04:26.980,0.215,-0.434,0.082
3/24/2023 12:04:26.990,0.215,-0.359,0.102
3/24/2023 12:04:27.000,0.156,-0.254,0.082
3/24/2023 12:04:27.010,0.137,-0.184,0.105
3/24/2023 12:04:27.020,0.113,-0.117,0.109
3/24/2023 12:04:27.030,0.086,-0.059,0.113
3/24/2023 12:04:27.040,0.063,-0.063,0.125
3/24/2023 12:04:27.050,0.039,-0.137,0.129
3/24/2023 12:04:27.060,0.039,-0.246,0.176
3/24/2023 12:04:27.070,0.039,-0.391,0.234
3/24/2023 12:04:27.080,0.023,-0.512,0.191
3/24/2023 12:04:27.090,0.031,-0.633,0.098
3/24/2023 12:04:27.100,0.059,-0.742,0.031
3/24/2023 12:04:27.110,0.125,-0.902,0.125
3/24/2023 12:04:27.120,0.145,-1.023,0.074
3/24/2023 12:04:27.130,0.137,-1.188,0.035
3/24/2023 12:04:27.140,0.09,-1.402,0.004
3/24/2023 12:04:27.150,0.043,-1.637,0.012
3/24/2023 12:04:27.160,0.023,-1.789,0
3/24/2023 12:04:27.170,0.027,-1.77,-0.031
3/24/2023 12:04:27.180,0.117,-1.711,0.027
3/24/2023 12:04:27.190,0.301,-1.539,0.082
3/24/2023 12:04:27.200,0.512,-1.332,0.141
3/24/2023 12:04:27.210,0.672,-1.254,0.375
3/24/2023 12:04:27.220,0.605,-1.375,0.555
3/24/2023 12:04:27.230,0.352,-1.547,0.461
3/24/2023 12:04:27.240,0.012,-1.727,0.117
3/24/2023 12:04:27.250,-0.293,-1.809,-0.211
3/24/2023 12:04:27.260,-0.477,-1.895,-0.004
3/24/2023 12:04:27.270,-0.625,-1.727,0.191
3/24/2023 12:04:27.280,-0.617,-1.285,0.145
3/24/2023 12:04:27.290,-0.543,-0.984,0.117
3/24/2023 12:04:27.300,-0.43,-0.844,0.148
3/24/2023 12:04:27.310,-0.359,-0.844,0.273
3/24/2023 12:04:27.320,-0.305,-0.914,0.352
3/24/2023 12:04:27.330,-0.281,-0.984,0.375
3/24/2023 12:04:27.340,-0.273,-1.043,0.316
3/24/2023 12:04:27.350,-0.277,-1.133,0.27
3/24/2023 12:04:27.360,-0.305,-1.172,0.23
3/24/2023 12:04:27.370,-0.332,-1.133,0.195
3/24/2023 12:04:27.380,-0.379,-1.059,0.184
3/24/2023 12:04:27.390,-0.422,-0.973,0.164
3/24/2023 12:04:27.400,-0.395,-0.875,0.148
3/24/2023 12:04:27.410,-0.328,-0.813,0.152
3/24/2023 12:04:27.420,-0.258,-0.777,0.141
3/24/2023 12:04:27.430,-0.195,-0.766,0.145
3/24/2023 12:04:27.440,-0.152,-0.742,0.129
3/24/2023 12:04:27.450,-0.145,-0.691,0.105
3/24/2023 12:04:27.460,-0.172,-0.629,0.074
3/24/2023 12:04:27.470,-0.23,-0.582,0.035
3/24/2023 12:04:27.480,-0.277,-0.547,0
3/24/2023 12:04:27.490,-0.297,-0.523,-0.016
3/24/2023 12:04:27.500,-0.281,-0.488,-0.031
3/24/2023 12:04:27.510,-0.23,-0.418,-0.039
3/24/2023 12:04:27.520,-0.145,-0.414,-0.051
3/24/2023 12:04:27.530,-0.074,-0.43,-0.051
3/24/2023 12:04:27.540,-0.02,-0.449,-0.051
3/24/2023 12:04:27.550,0.02,-0.445,-0.066
3/24/2023 12:04:27.560,0.102,-0.469,-0.008
3/24/2023 12:04:27.570,0.164,-0.496,0.035
3/24/2023 12:04:27.580,0.199,-0.527,0.098
3/24/2023 12:04:27.590,0.203,-0.613,0.137
3/24/2023 12:04:27.600,0.129,-0.703,0.148
3/24/2023 12:04:27.610,0.016,-0.801,0.121
3/24/2023 12:04:27.620,-0.086,-0.945,0.059
3/24/2023 12:04:27.630,-0.102,-0.996,-0.141
3/24/2023 12:04:27.640,-0.043,-1.02,-0.16
3/24/2023 12:04:27.650,0.059,-1.145,-0.086
3/24/2023 12:04:27.660,0.215,-1.262,-0.051
3/24/2023 12:04:27.670,0.43,-1.277,-0.051
3/24/2023 12:04:27.680,0.648,-1.258,0
3/24/2023 12:04:27.690,0.832,-1.285,0.043
3/24/2023 12:04:27.700,0.918,-1.375,0.039
3/24/2023 12:04:27.710,0.875,-1.461,-0.012
3/24/2023 12:04:27.720,0.73,-1.484,-0.055
3/24/2023 12:04:27.730,0.555,-1.441,-0.082
3/24/2023 12:04:27.740,0.352,-1.41,-0.063
3/24/2023 12:04:27.750,0.164,-1.457,-0.023
3/24/2023 12:04:27.760,-0.023,-1.539,0.008
3/24/2023 12:04:27.770,-0.191,-1.566,-0.008
3/24/2023 12:04:27.780,-0.344,-1.523,0.012
3/24/2023 12:04:27.790,-0.508,-1.441,0.078
3/24/2023 12:04:27.800,-0.637,-1.344,0.105
3/24/2023 12:04:27.810,-0.703,-1.199,0.043
3/24/2023 12:04:27.820,-0.73,-1.031,-0.078
3/24/2023 12:04:27.830,-0.738,-0.938,-0.145
3/24/2023 12:04:27.840,-0.754,-1.008,-0.16
3/24/2023 12:04:27.850,-0.773,-1.215,-0.105
3/24/2023 12:04:27.860,-0.738,-1.441,-0.043
3/24/2023 12:04:27.870,-0.668,-1.633,0.004
3/24/2023 12:04:27.880,-0.574,-1.789,0.02
3/24/2023 12:04:27.890,-0.441,-1.836,0
3/24/2023 12:04:27.900,-0.254,-1.758,0.012
3/24/2023 12:04:27.910,-0.09,-1.563,0.031
3/24/2023 12:04:27.920,0.039,-1.359,0.063
3/24/2023 12:04:27.930,0.121,-1.164,0.09
3/24/2023 12:04:27.940,0.156,-0.996,0.086
3/24/2023 12:04:27.950,0.137,-0.852,0.055
3/24/2023 12:04:27.960,0.09,-0.699,0
3/24/2023 12:04:27.970,0.023,-0.609,-0.02
3/24/2023 12:04:27.980,-0.004,-0.57,-0.031
3/24/2023 12:04:27.990,-0.023,-0.508,-0.043
3/24/2023 12:04:28.000,0.02,-0.523,0.004
3/24/2023 12:04:28.010,0.074,-0.469,-0.008
3/24/2023 12:04:28.020,0.074,-0.371,-0.008
3/24/2023 12:04:28.030,0.094,-0.305,0.039
3/24/2023 12:04:28.040,0.078,-0.246,0.086
3/24/2023 12:04:28.050,0.035,-0.188,0.105
3/24/2023 12:04:28.060,0.008,-0.156,0.121
3/24/2023 12:04:28.070,-0.008,-0.129,0.137
3/24/2023 12:04:28.080,-0.027,-0.121,0.121
3/24/2023 12:04:28.090,-0.016,-0.156,0.129
3/24/2023 12:04:28.100,0.043,-0.254,0.18
3/24/2023 12:04:28.110,0.121,-0.383,0.246
3/24/2023 12:04:28.120,0.172,-0.516,0.27
3/24/2023 12:04:28.130,0.18,-0.641,0.207
3/24/2023 12:04:28.140,0.18,-0.738,0.078
3/24/2023 12:04:28.150,0.23,-0.852,0.043
3/24/2023 12:04:28.160,0.309,-1.066,0.172
3/24/2023 12:04:28.170,0.285,-1.266,0.125
3/24/2023 12:04:28.180,0.23,-1.449,0.086
3/24/2023 12:04:28.190,0.172,-1.598,0.055
3/24/2023 12:04:28.200,0.121,-1.684,0.039
