------------ Data File Created By ActiGraph GT3X+ ActiLife v6.13.4 Firmware v1.7.2 date format M/d/yyyy at 100 Hz  Filter Normal -----------
Serial Number: TAS1H50200818
Start Time 12:24:00
Start Date 3/24/2023
Epoch Period (hh:mm:ss) 00:00:00
Download Time 12:38:54
Download Date 3/24/2023
Current Memory Address: 0
Current Battery Voltage: 4.2     Mode = 12
--------------------------------------------------
Timestamp,Accelerometer X,Accelerometer Y,Accelerometer Z
3/24/2023 12:24:00.000,0.297,0.203,0.922
3/24/2023 12:24:00.010,0.313,0.199,0.926
3/24/2023 12:24:00.020,0.32,0.199,0.922
3/24/2023 12:24:00.030,0.324,0.203,0.922
3/24/2023 12:24:00.040,0.328,0.203,0.918
3/24/2023 12:24:00.050,0.336,0.211,0.918
3/24/2023 12:24:00.060,0.344,0.207,0.926
3/24/2023 12:24:00.070,0.344,0.203,0.93
3/24/2023 12:24:00.080,0.352,0.203,0.938
3/24/2023 12:24:00.090,0.355,0.207,0.938
3/24/2023 12:24:00.100,0.359,0.219,0.945
3/24/2023 12:24:00.110,0.367,0.219,0.953
3/24/2023 12:24:00.120,0.371,0.211,0.957
3/24/2023 12:24:00.130,0.367,0.203,0.957
3/24/2023 12:24:00.140,0.367,0.203,0.961
3/24/2023 12:24:00.150,0.367,0.203,0.961
3/24/2023 12:24:00.160,0.367,0.199,0.961
3/24/2023 12:24:00.170,0.375,0.199,0.961
3/24/2023 12:24:00.180,0.379,0.199,0.961
3/24/2023 12:24:00.190,0.387,0.199,0.965
3/24/2023 12:24:00.200,0.395,0.195,0.965
3/24/2023 12:24:00.210,0.395,0.191,0.969
3/24/2023 12:24:00.220,0.402,0.188,0.965
3/24/2023 12:24:00.230,0.406,0.176,0.957
3/24/2023 12:24:00.240,0.402,0.164,0.945
3/24/2023 12:24:00.250,0.395,0.156,0.934
3/24/2023 12:24:00.260,0.387,0.148,0.914
3/24/2023 12:24:00.270,0.379,0.137,0.902
3/24/2023 12:24:00.280,0.371,0.121,0.879
3/24/2023 12:24:00.290,0.367,0.113,0.859
3/24/2023 12:24:00.300,0.363,0.102,0.844
3/24/2023 12:24:00.310,0.359,0.094,0.836
3/24/2023 12:24:00.320,0.355,0.086,0.824
3/24/2023 12:24:00.330,0.344,0.074,0.816
3/24/2023 12:24:00.340,0.332,0.066,0.805
3/24/2023 12:24:00.350,0.328,0.078,0.785
3/24/2023 12:24:00.360,0.332,0.121,0.773
3/24/2023 12:24:00.370,0.336,0.168,0.773
3/24/2023 12:24:00.380,0.348,0.184,0.793
3/24/2023 12:24:00.390,0.379,0.199,0.836
3/24/2023 12:24:00.400,0.422,0.215,0.875
3/24/2023 12:24:00.410,0.465,0.238,0.902
3/24/2023 12:24:00.420,0.504,0.266,0.934
3/24/2023 12:24:00.430,0.539,0.305,0.961
3/24/2023 12:24:00.440,0.574,0.348,0.988
3/24/2023 12:24:00.450,0.598,0.375,1.012
3/24/2023 12:24:00.460,0.613,0.391,1.023
3/24/2023 12:24:00.470,0.602,0.379,1.008
3/24/2023 12:24:00.480,0.57,0.355,0.977
3/24/2023 12:24:00.490,0.516,0.324,0.934
3/24/2023 12:24:00.500,0.457,0.313,0.898
3/24/2023 12:24:00.510,0.426,0.316,0.883
3/24/2023 12:24:00.520,0.406,0.324,0.883
3/24/2023 12:24:00.530,0.402,0.328,0.887
3/24/2023 12:24:00.540,0.41,0.324,0.891
3/24/2023 12:24:00.550,0.43,0.324,0.914
3/24/2023 12:24:00.560,0.461,0.328,0.938
3/24/2023 12:24:00.570,0.496,0.34,0.953
3/24/2023 12:24:00.580,0.527,0.363,0.973
3/24/2023 12:24:00.590,0.555,0.387,0.996
3/24/2023 12:24:00.600,0.574,0.395,1.012
3/24/2023 12:24:00.610,0.586,0.391,1.016
3/24/2023 12:24:00.620,0.586,0.375,1.004
3/24/2023 12:24:00.630,0.563,0.352,0.973
3/24/2023 12:24:00.640,0.523,0.328,0.938
3/24/2023 12:24:00.650,0.48,0.305,0.891
3/24/2023 12:24:00.660,0.438,0.293,0.848
3/24/2023 12:24:00.670,0.395,0.289,0.809
3/24/2023 12:24:00.680,0.367,0.285,0.773
3/24/2023 12:24:00.690,0.348,0.289,0.746
3/24/2023 12:24:00.700,0.34,0.281,0.734
3/24/2023 12:24:00.710,0.336,0.281,0.723
3/24/2023 12:24:00.720,0.344,0.285,0.727
3/24/2023 12:24:00.730,0.352,0.293,0.734
3/24/2023 12:24:00.740,0.359,0.305,0.75
3/24/2023 12:24:00.750,0.371,0.32,0.77
3/24/2023 12:24:00.760,0.391,0.328,0.793
3/24/2023 12:24:00.770,0.41,0.332,0.82
3/24/2023 12:24:00.780,0.434,0.34,0.859
3/24/2023 12:24:00.790,0.449,0.348,0.891
3/24/2023 12:24:00.800,0.469,0.359,0.91
3/24/2023 12:24:00.810,0.477,0.355,0.922
3/24/2023 12:24:00.820,0.48,0.352,0.926
3/24/2023 12:24:00.830,0.477,0.344,0.926
3/24/2023 12:24:00.840,0.473,0.324,0.918
3/24/2023 12:24:00.850,0.453,0.309,0.906
3/24/2023 12:24:00.860,0.426,0.285,0.875
3/24/2023 12:24:00.870,0.395,0.262,0.84
3/24/2023 12:24:00.880,0.363,0.254,0.809
3/24/2023 12:24:00.890,0.328,0.246,0.773
3/24/2023 12:24:00.900,0.289,0.246,0.746
3/24/2023 12:24:00.910,0.254,0.238,0.727
3/24/2023 12:24:00.920,0.223,0.242,0.719
3/24/2023 12:24:00.930,0.203,0.254,0.711
3/24/2023 12:24:00.940,0.195,0.258,0.719
3/24/2023 12:24:00.950,0.199,0.266,0.73
3/24/2023 12:24:00.960,0.207,0.266,0.742
3/24/2023 12:24:00.970,0.219,0.266,0.762
3/24/2023 12:24:00.980,0.242,0.281,0.789
3/24/2023 12:24:00.990,0.289,0.309,0.832
3/24/2023 12:24:01.000,0.328,0.324,0.863
3/24/2023 12:24:01.010,0.363,0.309,0.891
3/24/2023 12:24:01.020,0.383,0.285,0.906
3/24/2023 12:24:01.030,0.398,0.277,0.914
3/24/2023 12:24:01.040,0.43,0.309,0.914
3/24/2023 12:24:01.050,0.445,0.355,0.898
3/24/2023 12:24:01.060,0.461,0.379,0.871
3/24/2023 12:24:01.070,0.473,0.363,0.824
3/24/2023 12:24:01.080,0.477,0.34,0.781
3/24/2023 12:24:01.090,0.469,0.336,0.742
3/24/2023 12:24:01.100,0.461,0.34,0.703
3/24/2023 12:24:01.110,0.461,0.34,0.672
3/24/2023 12:24:01.120,0.449,0.348,0.641
3/24/2023 12:24:01.130,0.434,0.352,0.609
3/24/2023 12:24:01.140,0.422,0.355,0.582
3/24/2023 12:24:01.150,0.422,0.359,0.555
3/24/2023 12:24:01.160,0.418,0.367,0.527
3/24/2023 12:24:01.170,0.422,0.375,0.5
3/24/2023 12:24:01.180,0.418,0.375,0.473
3/24/2023 12:24:01.190,0.426,0.379,0.445
3/24/2023 12:24:01.200,0.43,0.379,0.418
3/24/2023 12:24:01.210,0.449,0.383,0.402
3/24/2023 12:24:01.220,0.469,0.387,0.379
3/24/2023 12:24:01.230,0.496,0.387,0.359
3/24/2023 12:24:01.240,0.531,0.379,0.348
3/24/2023 12:24:01.250,0.563,0.363,0.324
3/24/2023 12:24:01.260,0.602,0.359,0.289
3/24/2023 12:24:01.270,0.648,0.344,0.254
3/24/2023 12:24:01.280,0.691,0.34,0.215
3/24/2023 12:24:01.290,0.734,0.324,0.176
3/24/2023 12:24:01.300,0.781,0.316,0.129
3/24/2023 12:24:01.310,0.836,0.309,0.086
3/24/2023 12:24:01.320,0.898,0.305,0.047
3/24/2023 12:24:01.330,0.973,0.301,0.012
3/24/2023 12:24:01.340,1.063,0.316,-0.031
3/24/2023 12:24:01.350,1.164,0.363,-0.063
3/24/2023 12:24:01.360,1.273,0.426,-0.082
3/24/2023 12:24:01.370,1.371,0.508,-0.078
3/24/2023 12:24:01.380,1.43,0.586,-0.043
3/24/2023 12:24:01.390,1.457,0.668,0.008
3/24/2023 12:24:01.400,1.457,0.73,0.051
3/24/2023 12:24:01.410,1.453,0.77,0.059
3/24/2023 12:24:01.420,1.453,0.766,0.023
3/24/2023 12:24:01.430,1.441,0.719,-0.02
3/24/2023 12:24:01.440,1.41,0.633,-0.043
3/24/2023 12:24:01.450,1.352,0.531,-0.039
3/24/2023 12:24:01.460,1.285,0.453,-0.02
3/24/2023 12:24:01.470,1.25,0.367,-0.008
3/24/2023 12:24:01.480,1.258,0.293,0.012
3/24/2023 12:24:01.490,1.281,0.234,0.023
3/24/2023 12:24:01.500,1.273,0.191,0.027
3/24/2023 12:24:01.510,1.254,0.184,0.023
3/24/2023 12:24:01.520,1.223,0.207,0.016
3/24/2023 12:24:01.530,1.191,0.25,-0.008
3/24/2023 12:24:01.540,1.16,0.285,-0.031
3/24/2023 12:24:01.550,1.141,0.316,-0.055
3/24/2023 12:24:01.560,1.121,0.328,-0.082
3/24/2023 12:24:01.570,1.102,0.344,-0.113
3/24/2023 12:24:01.580,1.082,0.379,-0.145
3/24/2023 12:24:01.590,1.059,0.406,-0.176
3/24/2023 12:24:01.600,1.039,0.438,-0.211
3/24/2023 12:24:01.610,1.023,0.465,-0.234
3/24/2023 12:24:01.620,1.008,0.488,-0.25
3/24/2023 12:24:01.630,0.98,0.5,-0.266
3/24/2023 12:24:01.640,0.938,0.512,-0.273
3/24/2023 12:24:01.650,0.895,0.512,-0.281
3/24/2023 12:24:01.660,0.852,0.516,-0.285
3/24/2023 12:24:01.670,0.809,0.508,-0.285
3/24/2023 12:24:01.680,0.777,0.5,-0.281
3/24/2023 12:24:01.690,0.746,0.488,-0.27
3/24/2023 12:24:01.700,0.73,0.473,-0.262
3/24/2023 12:24:01.710,0.719,0.461,-0.25
3/24/2023 12:24:01.720,0.715,0.449,-0.238
3/24/2023 12:24:01.730,0.715,0.43,-0.238
3/24/2023 12:24:01.740,0.738,0.414,-0.246
3/24/2023 12:24:01.750,0.777,0.402,-0.266
3/24/2023 12:24:01.760,0.828,0.398,-0.285
3/24/2023 12:24:01.770,0.879,0.398,-0.309
3/24/2023 12:24:01.780,0.934,0.402,-0.332
3/24/2023 12:24:01.790,0.977,0.406,-0.348
3/24/2023 12:24:01.800,1.008,0.41,-0.352
3/24/2023 12:24:01.810,1.023,0.418,-0.348
3/24/2023 12:24:01.820,1.012,0.426,-0.336
3/24/2023 12:24:01.830,0.988,0.418,-0.324
3/24/2023 12:24:01.840,0.965,0.398,-0.305
3/24/2023 12:24:01.850,0.93,0.383,-0.273
3/24/2023 12:24:01.860,0.891,0.355,-0.238
3/24/2023 12:24:01.870,0.855,0.332,-0.223
3/24/2023 12:24:01.880,0.824,0.324,-0.211
3/24/2023 12:24:01.890,0.805,0.336,-0.211
3/24/2023 12:24:01.900,0.797,0.359,-0.219
3/24/2023 12:24:01.910,0.801,0.391,-0.227
3/24/2023 12:24:01.920,0.813,0.426,-0.234
3/24/2023 12:24:01.930,0.836,0.449,-0.234
3/24/2023 12:24:01.940,0.863,0.469,-0.219
3/24/2023 12:24:01.950,0.895,0.484,-0.203
3/24/2023 12:24:01.960,0.926,0.492,-0.191
3/24/2023 12:24:01.970,0.957,0.492,-0.184
3/24/2023 12:24:01.980,0.977,0.492,-0.172
3/24/2023 12:24:01.990,1.07,0.48,0.047
3/24/2023 12:24:02.000,1.949,0.676,2.145
3/24/2023 12:24:02.010,2.242,0.363,3.512
3/24/2023 12:24:02.020,1.293,-0.625,1.852
3/24/2023 12:24:02.030,0.762,-0.707,-0.266
3/24/2023 12:24:02.040,0.531,-0.031,-0.418
3/24/2023 12:24:02.050,0.785,0.754,0.039
3/24/2023 12:24:02.060,1.227,0.938,0.105
3/24/2023 12:24:02.070,1.391,0.914,0.211
3/24/2023 12:24:02.080,1.176,0.863,0.145
3/24/2023 12:24:02.090,1.004,0.758,0.004
3/24/2023 12:24:02.100,1.008,0.582,-0.141
3/24/2023 12:24:02.110,1.063,0.434,-0.203
3/24/2023 12:24:02.120,1.078,0.348,-0.227
3/24/2023 12:24:02.130,1.09,0.324,-0.219
3/24/2023 12:24:02.140,1.074,0.305,-0.18
3/24/2023 12:24:02.150,1.02,0.227,-0.129
3/24/2023 12:24:02.160,0.977,0.129,-0.098
3/24/2023 12:24:02.170,0.961,0.082,-0.066
3/24/2023 12:24:02.180,0.941,0.09,-0.035
3/24/2023 12:24:02.190,0.898,0.133,-0.016
3/24/2023 12:24:02.200,0.875,0.168,-0.008
3/24/2023 12:24:02.210,0.859,0.195,-0.016
3/24/2023 12:24:02.220,0.855,0.242,-0.039
3/24/2023 12:24:02.230,0.848,0.281,-0.07
3/24/2023 12:24:02.240,0.84,0.313,-0.094
3/24/2023 12:24:02.250,0.836,0.332,-0.105
3/24/2023 12:24:02.260,0.832,0.359,-0.117
3/24/2023 12:24:02.270,0.848,0.375,-0.133
3/24/2023 12:24:02.280,0.867,0.379,-0.141
3/24/2023 12:24:02.290,0.887,0.395,-0.145
3/24/2023 12:24:02.300,0.898,0.406,-0.152
3/24/2023 12:24:02.310,0.914,0.414,-0.152
3/24/2023 12:24:02.320,0.922,0.422,-0.152
3/24/2023 12:24:02.330,0.926,0.426,-0.152
3/24/2023 12:24:02.340,0.93,0.426,-0.148
3/24/2023 12:24:02.350,0.934,0.418,-0.145
3/24/2023 12:24:02.360,0.941,0.41,-0.141
3/24/2023 12:24:02.370,0.938,0.391,-0.137
3/24/2023 12:24:02.380,0.938,0.395,-0.133
3/24/2023 12:24:02.390,0.945,0.387,-0.129
3/24/2023 12:24:02.400,0.945,0.379,-0.121
3/24/2023 12:24:02.410,0.945,0.375,-0.113
3/24/2023 12:24:02.420,0.941,0.383,-0.117
3/24/2023 12:24:02.430,0.934,0.414,-0.117
3/24/2023 12:24:02.440,0.914,0.523,-0.113
3/24/2023 12:24:02.450,0.922,0.633,-0.074
3/24/2023 12:24:02.460,0.965,0.551,-0.027
3/24/2023 12:24:02.470,1.004,0.379,0.066
3/24/2023 12:24:02.480,1.016,0.25,0.152
3/24/2023 12:24:02.490,0.984,0.211,0.18
3/24/2023 12:24:02.500,0.953,0.184,0.176
3/24/2023 12:24:02.510,0.984,0.129,0.16
3/24/2023 12:24:02.520,1.008,0.078,0.145
3/24/2023 12:24:02.530,1.016,0.043,0.133
3/24/2023 12:24:02.540,1.012,0.023,0.125
3/24/2023 12:24:02.550,0.996,0,0.113
3/24/2023 12:24:02.560,0.98,-0.008,0.109
3/24/2023 12:24:02.570,0.973,0.008,0.105
3/24/2023 12:24:02.580,0.965,0.031,0.102
3/24/2023 12:24:02.590,0.957,0.078,0.09
3/24/2023 12:24:02.600,0.941,0.129,0.074
3/24/2023 12:24:02.610,0.938,0.184,0.051
3/24/2023 12:24:02.620,0.934,0.234,0.027
3/24/2023 12:24:02.630,0.934,0.277,0.012
3/24/2023 12:24:02.640,0.926,0.305,0
3/24/2023 12:24:02.650,0.926,0.32,-0.004
3/24/2023 12:24:02.660,0.926,0.348,-0.008
3/24/2023 12:24:02.670,0.93,0.371,-0.012
3/24/2023 12:24:02.680,0.926,0.391,-0.016
3/24/2023 12:24:02.690,0.93,0.406,-0.031
3/24/2023 12:24:02.700,0.922,0.41,-0.047
3/24/2023 12:24:02.710,0.93,0.438,-0.051
3/24/2023 12:24:02.720,0.93,0.457,-0.055
3/24/2023 12:24:02.730,0.93,0.465,-0.063
3/24/2023 12:24:02.740,0.934,0.469,-0.066
3/24/2023 12:24:02.750,0.93,0.449,-0.07
3/24/2023 12:24:02.760,0.938,0.449,-0.07
3/24/2023 12:24:02.770,0.938,0.469,-0.066
3/24/2023 12:24:02.780,0.938,0.48,-0.063
3/24/2023 12:24:02.790,0.934,0.484,-0.055
3/24/2023 12:24:02.800,0.922,0.488,-0.051
3/24/2023 12:24:02.810,0.91,0.477,-0.051
3/24/2023 12:24:02.820,0.902,0.477,-0.043
3/24/2023 12:24:02.830,0.898,0.48,-0.043
3/24/2023 12:24:02.840,0.895,0.484,-0.051
3/24/2023 12:24:02.850,0.887,0.477,-0.047
3/24/2023 12:24:02.860,0.887,0.473,-0.047
3/24/2023 12:24:02.870,0.887,0.469,-0.043
3/24/2023 12:24:02.880,0.891,0.469,-0.039
3/24/2023 12:24:02.890,0.898,0.469,-0.043
3/24/2023 12:24:02.900,0.898,0.461,-0.047
3/24/2023 12:24:02.910,0.898,0.457,-0.051
3/24/2023 12:24:02.920,0.902,0.453,-0.059
3/24/2023 12:24:02.930,0.906,0.453,-0.059
3/24/2023 12:24:02.940,0.91,0.449,-0.047
3/24/2023 12:24:02.950,0.914,0.434,-0.047
3/24/2023 12:24:02.960,0.91,0.426,-0.055
3/24/2023 12:24:02.970,0.918,0.418,-0.055
3/24/2023 12:24:02.980,0.918,0.414,-0.063
3/24/2023 12:24:02.990,0.922,0.402,-0.063
3/24/2023 12:24:03.000,0.918,0.398,-0.051
3/24/2023 12:24:03.010,0.93,0.387,-0.023
3/24/2023 12:24:03.020,0.938,0.383,0
3/24/2023 12:24:03.030,0.949,0.379,0.027
3/24/2023 12:24:03.040,0.953,0.352,0.031
3/24/2023 12:24:03.050,0.957,0.324,0.008
3/24/2023 12:24:03.060,0.957,0.309,-0.008
3/24/2023 12:24:03.070,0.969,0.277,-0.008
3/24/2023 12:24:03.080,0.969,0.246,0.039
3/24/2023 12:24:03.090,0.965,0.23,0.102
3/24/2023 12:24:03.100,0.941,0.219,0.129
3/24/2023 12:24:03.110,0.926,0.195,0.117
3/24/2023 12:24:03.120,0.934,0.156,0.086
3/24/2023 12:24:03.130,0.941,0.117,0.051
3/24/2023 12:24:03.140,0.938,0.117,0.016
3/24/2023 12:24:03.150,0.934,0.164,-0.016
3/24/2023 12:24:03.160,0.922,0.23,-0.047
3/24/2023 12:24:03.170,0.926,0.309,-0.066
3/24/2023 12:24:03.180,0.93,0.363,-0.086
3/24/2023 12:24:03.190,0.93,0.402,-0.105
3/24/2023 12:24:03.200,0.922,0.43,-0.133
3/24/2023 12:24:03.210,0.91,0.457,-0.16
3/24/2023 12:24:03.220,0.902,0.473,-0.184
3/24/2023 12:24:03.230,0.883,0.496,-0.199
3/24/2023 12:24:03.240,0.871,0.512,-0.215
3/24/2023 12:24:03.250,0.84,0.527,-0.223
3/24/2023 12:24:03.260,0.813,0.523,-0.227
3/24/2023 12:24:03.270,0.793,0.523,-0.242
3/24/2023 12:24:03.280,0.777,0.52,-0.242
3/24/2023 12:24:03.290,0.777,0.52,-0.25
3/24/2023 12:24:03.300,0.789,0.52,-0.25
3/24/2023 12:24:03.310,0.809,0.52,-0.25
3/24/2023 12:24:03.320,0.832,0.523,-0.254
3/24/2023 12:24:03.330,0.852,0.531,-0.262
3/24/2023 12:24:03.340,0.875,0.531,-0.266
3/24/2023 12:24:03.350,0.902,0.523,-0.266
3/24/2023 12:24:03.360,0.934,0.508,-0.273
3/24/2023 12:24:03.370,0.961,0.492,-0.258
3/24/2023 12:24:03.380,0.984,0.469,-0.254
3/24/2023 12:24:03.390,1.004,0.445,-0.25
3/24/2023 12:24:03.400,1.02,0.41,-0.238
3/24/2023 12:24:03.410,1.043,0.383,-0.223
3/24/2023 12:24:03.420,1.059,0.363,-0.211
3/24/2023 12:24:03.430,1.063,0.348,-0.176
3/24/2023 12:24:03.440,1.055,0.34,-0.137
3/24/2023 12:24:03.450,1.031,0.328,-0.109
3/24/2023 12:24:03.460,1,0.309,-0.094
3/24/2023 12:24:03.470,0.973,0.289,-0.082
3/24/2023 12:24:03.480,0.953,0.266,-0.078
3/24/2023 12:24:03.490,0.93,0.246,-0.074
3/24/2023 12:24:03.500,0.898,0.242,-0.066
3/24/2023 12:24:03.510,0.875,0.246,-0.055
3/24/2023 12:24:03.520,0.852,0.266,-0.063
3/24/2023 12:24:03.530,0.844,0.293,-0.066
3/24/2023 12:24:03.540,0.836,0.316,-0.074
3/24/2023 12:24:03.550,0.84,0.34,-0.094
3/24/2023 12:24:03.560,0.855,0.363,-0.102
3/24/2023 12:24:03.570,0.871,0.383,-0.113
3/24/2023 12:24:03.580,0.887,0.398,-0.129
3/24/2023 12:24:03.590,0.902,0.41,-0.133
3/24/2023 12:24:03.600,0.914,0.414,-0.133
3/24/2023 12:24:03.610,0.93,0.418,-0.129
3/24/2023 12:24:03.620,0.945,0.414,-0.129
3/24/2023 12:24:03.630,0.961,0.406,-0.121
3/24/2023 12:24:03.640,0.977,0.391,-0.117
3/24/2023 12:24:03.650,0.988,0.383,-0.121
3/24/2023 12:24:03.660,0.996,0.375,-0.117
3/24/2023 12:24:03.670,0.996,0.375,-0.113
3/24/2023 12:24:03.680,0.996,0.375,-0.109
3/24/2023 12:24:03.690,1,0.371,-0.105
3/24/2023 12:24:03.700,1,0.371,-0.105
3/24/2023 12:24:03.710,1,0.375,-0.098
3/24/2023 12:24:03.720,1.004,0.375,-0.086
3/24/2023 12:24:03.730,1.008,0.363,-0.078
3/24/2023 12:24:03.740,1.004,0.355,-0.078
3/24/2023 12:24:03.750,1,0.34,-0.078
3/24/2023 12:24:03.760,0.992,0.32,-0.074
3/24/2023 12:24:03.770,0.984,0.313,-0.078
3/24/2023 12:24:03.780,0.977,0.309,-0.07
3/24/2023 12:24:03.790,0.973,0.305,-0.07
3/24/2023 12:24:03.800,0.969,0.301,-0.066
3/24/2023 12:24:03.810,0.957,0.297,-0.066
3/24/2023 12:24:03.820,0.949,0.301,-0.059
3/24/2023 12:24:03.830,0.945,0.301,-0.059
3/24/2023 12:24:03.840,0.941,0.305,-0.043
3/24/2023 12:24:03.850,0.941,0.309,-0.031
3/24/2023 12:24:03.860,0.945,0.297,-0.027
3/24/2023 12:24:03.870,0.949,0.289,-0.023
3/24/2023 12:24:03.880,0.938,0.277,-0.02
3/24/2023 12:24:03.890,0.934,0.266,-0.02
3/24/2023 12:24:03.900,0.934,0.258,-0.012
3/24/2023 12:24:03.910,0.922,0.258,-0.008
3/24/2023 12:24:03.920,0.918,0.258,-0.008
3/24/2023 12:24:03.930,0.914,0.254,-0.012
3/24/2023 12:24:03.940,0.906,0.254,-0.012
3/24/2023 12:24:03.950,0.906,0.25,-0.012
3/24/2023 12:24:03.960,0.902,0.254,-0.012
3/24/2023 12:24:03.970,0.902,0.262,-0.008
3/24/2023 12:24:03.980,0.906,0.258,-0.012
3/24/2023 12:24:03.990,0.902,0.262,-0.023
3/24/2023 12:24:04.000,0.891,0.277,-0.031
3/24/2023 12:24:04.010,0.895,0.277,-0.035
3/24/2023 12:24:04.020,0.902,0.281,-0.047
3/24/2023 12:24:04.030,0.902,0.301,-0.059
3/24/2023 12:24:04.040,0.902,0.324,-0.059
3/24/2023 12:24:04.050,0.914,0.34,-0.074
3/24/2023 12:24:04.060,0.922,0.336,-0.078
3/24/2023 12:24:04.070,0.93,0.348,-0.074
3/24/2023 12:24:04.080,0.934,0.367,-0.074
3/24/2023 12:24:04.090,0.941,0.371,-0.074
3/24/2023 12:24:04.100,0.961,0.371,-0.078
3/24/2023 12:24:04.110,0.965,0.363,-0.082
3/24/2023 12:24:04.120,0.953,0.359,-0.082
3/24/2023 12:24:04.130,0.941,0.367,-0.082
3/24/2023 12:24:04.140,0.934,0.371,-0.082
3/24/2023 12:24:04.150,0.934,0.375,-0.086
3/24/2023 12:24:04.160,0.949,0.387,-0.09
3/24/2023 12:24:04.170,0.965,0.383,-0.09
3/24/2023 12:24:04.180,0.977,0.391,-0.09
3/24/2023 12:24:04.190,0.988,0.395,-0.094
3/24/2023 12:24:04.200,1,0.402,-0.098
3/24/2023 12:24:04.210,1.02,0.398,-0.105
3/24/2023 12:24:04.220,1.031,0.387,-0.117
3/24/2023 12:24:04.230,1.039,0.391,-0.125
3/24/2023 12:24:04.240,1.035,0.395,-0.125
3/24/2023 12:24:04.250,1.031,0.383,-0.117
3/24/2023 12:24:04.260,1.008,0.367,-0.109
3/24/2023 12:24:04.270,0.969,0.359,-0.102
3/24/2023 12:24:04.280,0.934,0.352,-0.09
3/24/2023 12:24:04.290,0.898,0.344,-0.09
3/24/2023 12:24:04.300,0.871,0.344,-0.09
3/24/2023 12:24:04.310,0.852,0.355,-0.086
3/24/2023 12:24:04.320,0.844,0.367,-0.09
3/24/2023 12:24:04.330,0.84,0.375,-0.102
3/24/2023 12:24:04.340,0.836,0.395,-0.105
3/24/2023 12:24:04.350,0.848,0.406,-0.109
3/24/2023 12:24:04.360,0.867,0.41,-0.117
3/24/2023 12:24:04.370,0.887,0.418,-0.125
3/24/2023 12:24:04.380,0.906,0.43,-0.117
3/24/2023 12:24:04.390,0.93,0.441,-0.125
3/24/2023 12:24:04.400,0.957,0.43,-0.125
3/24/2023 12:24:04.410,0.973,0.422,-0.113
3/24/2023 12:24:04.420,0.977,0.418,-0.113
3/24/2023 12:24:04.430,0.98,0.402,-0.113
3/24/2023 12:24:04.440,0.969,0.387,-0.102
3/24/2023 12:24:04.450,0.949,0.383,-0.098
3/24/2023 12:24:04.460,0.934,0.379,-0.102
3/24/2023 12:24:04.470,0.918,0.379,-0.098
3/24/2023 12:24:04.480,0.91,0.387,-0.094
3/24/2023 12:24:04.490,0.906,0.402,-0.102
3/24/2023 12:24:04.500,0.895,0.41,-0.105
3/24/2023 12:24:04.510,0.902,0.402,-0.098
3/24/2023 12:24:04.520,0.906,0.402,-0.105
3/24/2023 12:24:04.530,0.91,0.402,-0.109
3/24/2023 12:24:04.540,0.922,0.395,-0.113
3/24/2023 12:24:04.550,0.93,0.395,-0.113
3/24/2023 12:24:04.560,0.93,0.402,-0.113
3/24/2023 12:24:04.570,0.938,0.402,-0.117
3/24/2023 12:24:04.580,0.934,0.395,-0.113
3/24/2023 12:24:04.590,0.934,0.398,-0.113
3/24/2023 12:24:04.600,0.93,0.398,-0.117
3/24/2023 12:24:04.610,0.93,0.391,-0.121
3/24/2023 12:24:04.620,0.934,0.387,-0.125
3/24/2023 12:24:04.630,0.934,0.391,-0.121
3/24/2023 12:24:04.640,0.93,0.387,-0.125
3/24/2023 12:24:04.650,0.938,0.383,-0.113
3/24/2023 12:24:04.660,0.934,0.379,-0.102
3/24/2023 12:24:04.670,0.953,0.375,-0.098
3/24/2023 12:24:04.680,0.961,0.363,-0.098
3/24/2023 12:24:04.690,0.965,0.352,-0.098
3/24/2023 12:24:04.700,0.965,0.344,-0.094
3/24/2023 12:24:04.710,0.965,0.34,-0.098
3/24/2023 12:24:04.720,0.969,0.34,-0.102
3/24/2023 12:24:04.730,0.977,0.348,-0.105
3/24/2023 12:24:04.740,0.973,0.352,-0.109
3/24/2023 12:24:04.750,0.961,0.355,-0.105
3/24/2023 12:24:04.760,0.945,0.359,-0.102
3/24/2023 12:24:04.770,0.93,0.367,-0.09
3/24/2023 12:24:04.780,0.918,0.371,-0.086
3/24/2023 12:24:04.790,0.922,0.363,-0.082
3/24/2023 12:24:04.800,0.922,0.348,-0.07
3/24/2023 12:24:04.810,0.93,0.344,-0.059
3/24/2023 12:24:04.820,0.93,0.344,-0.051
3/24/2023 12:24:04.830,0.938,0.34,-0.047
3/24/2023 12:24:04.840,0.934,0.328,-0.047
3/24/2023 12:24:04.850,0.934,0.32,-0.051
3/24/2023 12:24:04.860,0.934,0.32,-0.051
3/24/2023 12:24:04.870,0.941,0.313,-0.043
3/24/2023 12:24:04.880,0.941,0.305,-0.035
3/24/2023 12:24:04.890,0.945,0.309,-0.027
3/24/2023 12:24:04.900,0.953,0.309,-0.023
3/24/2023 12:24:04.910,0.961,0.305,-0.02
3/24/2023 12:24:04.920,0.973,0.293,-0.016
3/24/2023 12:24:04.930,0.977,0.277,-0.008
3/24/2023 12:24:04.940,0.977,0.27,-0.012
3/24/2023 12:24:04.950,0.965,0.27,-0.008
3/24/2023 12:24:04.960,0.949,0.285,-0.016
3/24/2023 12:24:04.970,0.949,0.297,-0.008
3/24/2023 12:24:04.980,0.953,0.301,-0.008
3/24/2023 12:24:04.990,0.949,0.301,-0.008
3/24/2023 12:24:05.000,0.93,0.309,-0.012
3/24/2023 12:24:05.010,0.93,0.309,-0.016
3/24/2023 12:24:05.020,0.93,0.309,-0.023
3/24/2023 12:24:05.030,0.926,0.313,-0.027
3/24/2023 12:24:05.040,0.926,0.316,-0.031
3/24/2023 12:24:05.050,0.918,0.324,-0.035
3/24/2023 12:24:05.060,0.918,0.34,-0.039
3/24/2023 12:24:05.070,0.926,0.344,-0.043
3/24/2023 12:24:05.080,0.93,0.34,-0.051
3/24/2023 12:24:05.090,0.93,0.34,-0.059
3/24/2023 12:24:05.100,0.938,0.34,-0.059
3/24/2023 12:24:05.110,0.945,0.34,-0.059
3/24/2023 12:24:05.120,0.949,0.352,-0.055
3/24/2023 12:24:05.130,0.953,0.34,-0.043
3/24/2023 12:24:05.140,0.953,0.332,-0.027
3/24/2023 12:24:05.150,0.949,0.324,-0.027
3/24/2023 12:24:05.160,0.957,0.313,-0.027
3/24/2023 12:24:05.170,0.977,0.305,-0.02
3/24/2023 12:24:05.180,0.992,0.305,-0.012
3/24/2023 12:24:05.190,0.992,0.305,-0.008
3/24/2023 12:24:05.200,0.988,0.297,-0.008
3/24/2023 12:24:05.210,0.98,0.301,-0.023
3/24/2023 12:24:05.220,0.98,0.293,-0.031
3/24/2023 12:24:05.230,0.98,0.301,-0.039
3/24/2023 12:24:05.240,0.969,0.316,-0.047
3/24/2023 12:24:05.250,0.953,0.344,-0.047
3/24/2023 12:24:05.260,0.953,0.363,-0.055
3/24/2023 12:24:05.270,0.941,0.371,-0.066
3/24/2023 12:24:05.280,0.938,0.379,-0.082
3/24/2023 12:24:05.290,0.938,0.379,-0.094
3/24/2023 12:24:05.300,0.934,0.383,-0.105
3/24/2023 12:24:05.310,0.926,0.395,-0.113
3/24/2023 12:24:05.320,0.918,0.406,-0.113
3/24/2023 12:24:05.330,0.918,0.414,-0.113
3/24/2023 12:24:05.340,0.918,0.422,-0.113
3/24/2023 12:24:05.350,0.922,0.418,-0.121
3/24/2023 12:24:05.360,0.922,0.418,-0.117
3/24/2023 12:24:05.370,0.918,0.422,-0.113
3/24/2023 12:24:05.380,0.922,0.414,-0.109
3/24/2023 12:24:05.390,0.93,0.41,-0.109
3/24/2023 12:24:05.400,0.938,0.391,-0.098
3/24/2023 12:24:05.410,0.941,0.375,-0.094
3/24/2023 12:24:05.420,0.938,0.363,-0.086
3/24/2023 12:24:05.430,0.934,0.348,-0.086
3/24/2023 12:24:05.440,0.93,0.344,-0.086
3/24/2023 12:24:05.450,0.926,0.348,-0.086
3/24/2023 12:24:05.460,0.926,0.359,-0.078
3/24/2023 12:24:05.470,0.934,0.363,-0.074
3/24/2023 12:24:05.480,0.934,0.355,-0.074
3/24/2023 12:24:05.490,0.934,0.355,-0.07
3/24/2023 12:24:05.500,0.918,0.363,-0.07
3/24/2023 12:24:05.510,0.91,0.348,-0.07
3/24/2023 12:24:05.520,0.906,0.336,-0.07
3/24/2023 12:24:05.530,0.91,0.34,-0.066
3/24/2023 12:24:05.540,0.91,0.34,-0.063
3/24/2023 12:24:05.550,0.914,0.34,-0.063
3/24/2023 12:24:05.560,0.914,0.332,-0.07
3/24/2023 12:24:05.570,0.898,0.332,-0.07
3/24/2023 12:24:05.580,0.891,0.348,-0.07
3/24/2023 12:24:05.590,0.875,0.363,-0.078
3/24/2023 12:24:05.600,0.867,0.371,-0.09
3/24/2023 12:24:05.610,0.863,0.375,-0.078
3/24/2023 12:24:05.620,0.848,0.371,-0.055
3/24/2023 12:24:05.630,0.836,0.367,-0.027
3/24/2023 12:24:05.640,0.801,0.387,-0.008
3/24/2023 12:24:05.650,0.766,0.41,-0.008
3/24/2023 12:24:05.660,0.742,0.43,-0.008
3/24/2023 12:24:05.670,0.73,0.441,-0.012
3/24/2023 12:24:05.680,0.707,0.465,-0.016
3/24/2023 12:24:05.690,0.664,0.5,-0.031
3/24/2023 12:24:05.700,0.602,0.531,-0.063
3/24/2023 12:24:05.710,0.555,0.555,-0.117
3/24/2023 12:24:05.720,0.539,0.578,-0.199
3/24/2023 12:24:05.730,0.598,0.586,-0.281
3/24/2023 12:24:05.740,0.738,0.594,-0.344
3/24/2023 12:24:05.750,0.91,0.613,-0.379
3/24/2023 12:24:05.760,1.063,0.637,-0.41
3/24/2023 12:24:05.770,1.145,0.648,-0.438
3/24/2023 12:24:05.780,1.141,0.66,-0.453
3/24/2023 12:24:05.790,1.102,0.652,-0.461
3/24/2023 12:24:05.800,1.09,0.637,-0.461
3/24/2023 12:24:05.810,1.117,0.617,-0.461
3/24/2023 12:24:05.820,1.156,0.605,-0.441
3/24/2023 12:24:05.830,1.16,0.582,-0.391
3/24/2023 12:24:05.840,1.102,0.555,-0.332
3/24/2023 12:24:05.850,1.008,0.52,-0.281
3/24/2023 12:24:05.860,0.91,0.484,-0.242
3/24/2023 12:24:05.870,0.836,0.461,-0.234
3/24/2023 12:24:05.880,0.785,0.449,-0.242
3/24/2023 12:24:05.890,0.742,0.457,-0.254
3/24/2023 12:24:05.900,0.711,0.473,-0.27
3/24/2023 12:24:05.910,0.703,0.504,-0.285
3/24/2023 12:24:05.920,0.719,0.527,-0.277
3/24/2023 12:24:05.930,0.742,0.547,-0.266
3/24/2023 12:24:05.940,0.762,0.555,-0.27
3/24/2023 12:24:05.950,0.773,0.555,-0.281
3/24/2023 12:24:05.960,0.789,0.547,-0.301
3/24/2023 12:24:05.970,0.813,0.539,-0.313
3/24/2023 12:24:05.980,0.836,0.535,-0.316
3/24/2023 12:24:05.990,0.859,0.547,-0.305
3/24/2023 12:24:06.000,0.859,0.559,-0.289
3/24/2023 12:24:06.010,0.867,0.563,-0.27
3/24/2023 12:24:06.020,0.871,0.563,-0.258
3/24/2023 12:24:06.030,0.875,0.551,-0.246
3/24/2023 12:24:06.040,0.887,0.543,-0.234
3/24/2023 12:24:06.050,0.875,0.531,-0.223
3/24/2023 12:24:06.060,0.875,0.531,-0.211
3/24/2023 12:24:06.070,0.871,0.543,-0.184
3/24/2023 12:24:06.080,0.867,0.551,-0.164
3/24/2023 12:24:06.090,0.867,0.543,-0.156
3/24/2023 12:24:06.100,0.879,0.531,-0.152
3/24/2023 12:24:06.110,0.902,0.523,-0.152
3/24/2023 12:24:06.120,0.941,0.52,-0.148
3/24/2023 12:24:06.130,0.996,0.512,-0.148
3/24/2023 12:24:06.140,1.047,0.516,-0.145
3/24/2023 12:24:06.150,1.109,0.52,-0.141
3/24/2023 12:24:06.160,1.16,0.527,-0.137
3/24/2023 12:24:06.170,1.215,0.523,-0.117
3/24/2023 12:24:06.180,1.258,0.52,-0.094
3/24/2023 12:24:06.190,1.285,0.52,-0.035
3/24/2023 12:24:06.200,1.297,0.527,0.039
3/24/2023 12:24:06.210,1.289,0.527,0.09
3/24/2023 12:24:06.220,1.281,0.504,0.109
3/24/2023 12:24:06.230,1.285,0.445,0.105
3/24/2023 12:24:06.240,1.297,0.352,0.094
3/24/2023 12:24:06.250,1.293,0.246,0.082
3/24/2023 12:24:06.260,1.258,0.141,0.07
3/24/2023 12:24:06.270,1.203,0.059,0.066
3/24/2023 12:24:06.280,1.156,-0.004,0.051
3/24/2023 12:24:06.290,1.148,-0.051,0.031
3/24/2023 12:24:06.300,1.199,-0.055,0.016
3/24/2023 12:24:06.310,1.258,-0.035,-0.035
3/24/2023 12:24:06.320,1.297,-0.004,-0.109
3/24/2023 12:24:06.330,1.301,0.051,-0.195
3/24/2023 12:24:06.340,1.254,0.105,-0.293
3/24/2023 12:24:06.350,1.18,0.152,-0.324
3/24/2023 12:24:06.360,1.113,0.227,-0.289
3/24/2023 12:24:06.370,1.082,0.285,-0.262
3/24/2023 12:24:06.380,1.074,0.301,-0.234
3/24/2023 12:24:06.390,1.07,0.281,-0.227
3/24/2023 12:24:06.400,1.066,0.234,-0.23
3/24/2023 12:24:06.410,1.082,0.164,-0.227
3/24/2023 12:24:06.420,1.105,0.09,-0.23
3/24/2023 12:24:06.430,1.133,0.047,-0.23
3/24/2023 12:24:06.440,1.141,0.055,-0.238
3/24/2023 12:24:06.450,1.117,0.098,-0.25
3/24/2023 12:24:06.460,1.074,0.145,-0.254
3/24/2023 12:24:06.470,1.02,0.184,-0.277
3/24/2023 12:24:06.480,0.957,0.199,-0.285
3/24/2023 12:24:06.490,0.883,0.203,-0.27
3/24/2023 12:24:06.500,0.797,0.215,-0.25
3/24/2023 12:24:06.510,0.723,0.219,-0.238
3/24/2023 12:24:06.520,0.66,0.238,-0.219
3/24/2023 12:24:06.530,0.613,0.254,-0.191
3/24/2023 12:24:06.540,0.57,0.262,-0.18
3/24/2023 12:24:06.550,0.547,0.254,-0.176
3/24/2023 12:24:06.560,0.543,0.238,-0.172
3/24/2023 12:24:06.570,0.555,0.227,-0.18
3/24/2023 12:24:06.580,0.57,0.227,-0.18
3/24/2023 12:24:06.590,0.578,0.238,-0.172
3/24/2023 12:24:06.600,0.574,0.254,-0.176
3/24/2023 12:24:06.610,0.574,0.262,-0.184
3/24/2023 12:24:06.620,0.586,0.262,-0.195
3/24/2023 12:24:06.630,0.613,0.262,-0.207
3/24/2023 12:24:06.640,0.637,0.27,-0.227
3/24/2023 12:24:06.650,0.664,0.277,-0.242
3/24/2023 12:24:06.660,0.707,0.301,-0.258
3/24/2023 12:24:06.670,0.762,0.332,-0.262
3/24/2023 12:24:06.680,0.832,0.371,-0.254
3/24/2023 12:24:06.690,0.918,0.395,-0.25
3/24/2023 12:24:06.700,1.016,0.406,-0.254
3/24/2023 12:24:06.710,1.109,0.406,-0.266
3/24/2023 12:24:06.720,1.203,0.406,-0.277
3/24/2023 12:24:06.730,1.258,0.438,-0.27
3/24/2023 12:24:06.740,1.273,0.48,-0.258
3/24/2023 12:24:06.750,1.258,0.547,-0.254
3/24/2023 12:24:06.760,1.23,0.609,-0.258
3/24/2023 12:24:06.770,1.211,0.66,-0.277
3/24/2023 12:24:06.780,1.188,0.703,-0.301
3/24/2023 12:24:06.790,1.176,0.746,-0.34
3/24/2023 12:24:06.800,1.203,0.789,-0.363
3/24/2023 12:24:06.810,1.246,0.848,-0.348
3/24/2023 12:24:06.820,1.223,0.918,-0.309
3/24/2023 12:24:06.830,1.117,0.973,-0.289
3/24/2023 12:24:06.840,0.992,0.996,-0.27
3/24/2023 12:24:06.850,0.887,0.984,-0.242
3/24/2023 12:24:06.860,0.813,0.945,-0.219
3/24/2023 12:24:06.870,0.77,0.891,-0.203
3/24/2023 12:24:06.880,0.758,0.813,-0.215
3/24/2023 12:24:06.890,0.801,0.734,-0.234
3/24/2023 12:24:06.900,0.91,0.676,-0.242
3/24/2023 12:24:06.910,1.051,0.629,-0.246
3/24/2023 12:24:06.920,1.211,0.59,-0.254
3/24/2023 12:24:06.930,1.359,0.563,-0.262
3/24/2023 12:24:06.940,1.492,0.555,-0.258
3/24/2023 12:24:06.950,1.582,0.539,-0.238
3/24/2023 12:24:06.960,1.594,0.523,-0.227
3/24/2023 12:24:06.970,1.539,0.496,-0.211
3/24/2023 12:24:06.980,1.449,0.457,-0.199
3/24/2023 12:24:06.990,1.355,0.41,-0.191
3/24/2023 12:24:07.000,1.266,0.359,-0.191
3/24/2023 12:24:07.010,1.211,0.316,-0.188
3/24/2023 12:24:07.020,1.168,0.285,-0.18
3/24/2023 12:24:07.030,1.137,0.254,-0.137
3/24/2023 12:24:07.040,1.121,0.238,-0.078
3/24/2023 12:24:07.050,1.105,0.234,-0.035
3/24/2023 12:24:07.060,1.086,0.219,-0.016
3/24/2023 12:24:07.070,1.074,0.188,-0.012
3/24/2023 12:24:07.080,1.066,0.145,-0.023
3/24/2023 12:24:07.090,1.047,0.098,-0.031
3/24/2023 12:24:07.100,1.027,0.066,-0.043
3/24/2023 12:24:07.110,1.008,0.055,-0.059
3/24/2023 12:24:07.120,0.996,0.063,-0.066
3/24/2023 12:24:07.130,1,0.094,-0.066
3/24/2023 12:24:07.140,1.031,0.125,-0.059
3/24/2023 12:24:07.150,1.07,0.164,-0.043
3/24/2023 12:24:07.160,1.082,0.195,-0.027
3/24/2023 12:24:07.170,1.066,0.199,-0.02
3/24/2023 12:24:07.180,1.043,0.184,-0.027
3/24/2023 12:24:07.190,1.043,0.16,-0.035
3/24/2023 12:24:07.200,1.07,0.141,-0.051
3/24/2023 12:24:07.210,1.117,0.129,-0.066
3/24/2023 12:24:07.220,1.164,0.125,-0.082
3/24/2023 12:24:07.230,1.199,0.121,-0.086
3/24/2023 12:24:07.240,1.203,0.125,-0.086
3/24/2023 12:24:07.250,1.168,0.137,-0.082
3/24/2023 12:24:07.260,1.109,0.152,-0.074
3/24/2023 12:24:07.270,1.059,0.168,-0.055
3/24/2023 12:24:07.280,1.02,0.172,-0.043
3/24/2023 12:24:07.290,1.043,0.18,-0.051
3/24/2023 12:24:07.300,1.105,0.184,-0.078
3/24/2023 12:24:07.310,1.164,0.172,-0.109
3/24/2023 12:24:07.320,1.168,0.152,-0.148
3/24/2023 12:24:07.330,1.109,0.141,-0.156
3/24/2023 12:24:07.340,1.02,0.145,-0.141
3/24/2023 12:24:07.350,0.934,0.172,-0.109
3/24/2023 12:24:07.360,0.883,0.215,-0.066
3/24/2023 12:24:07.370,0.891,0.262,-0.039
3/24/2023 12:24:07.380,0.949,0.289,-0.035
3/24/2023 12:24:07.390,1.035,0.301,-0.051
3/24/2023 12:24:07.400,1.113,0.305,-0.078
3/24/2023 12:24:07.410,1.184,0.301,-0.102
3/24/2023 12:24:07.420,1.234,0.289,-0.129
3/24/2023 12:24:07.430,1.262,0.285,-0.145
3/24/2023 12:24:07.440,1.242,0.293,-0.148
3/24/2023 12:24:07.450,1.188,0.313,-0.137
3/24/2023 12:24:07.460,1.098,0.34,-0.109
3/24/2023 12:24:07.470,1.004,0.359,-0.074
3/24/2023 12:24:07.480,0.918,0.355,-0.039
3/24/2023 12:24:07.490,0.84,0.324,-0.016
3/24/2023 12:24:07.500,0.777,0.277,-0.004
3/24/2023 12:24:07.510,0.754,0.227,0.012
3/24/2023 12:24:07.520,0.742,0.199,0.008
3/24/2023 12:24:07.530,0.746,0.195,-0.004
3/24/2023 12:24:07.540,0.762,0.203,-0.016
3/24/2023 12:24:07.550,0.781,0.219,-0.027
3/24/2023 12:24:07.560,0.816,0.238,-0.047
3/24/2023 12:24:07.570,0.848,0.254,-0.063
3/24/2023 12:24:07.580,0.879,0.266,-0.066
3/24/2023 12:24:07.590,0.906,0.277,-0.074
3/24/2023 12:24:07.600,0.934,0.293,-0.09
3/24/2023 12:24:07.610,0.957,0.309,-0.102
3/24/2023 12:24:07.620,0.992,0.328,-0.113
3/24/2023 12:24:07.630,1.023,0.355,-0.125
3/24/2023 12:24:07.640,1.07,0.395,-0.133
3/24/2023 12:24:07.650,1.102,0.449,-0.125
3/24/2023 12:24:07.660,1.133,0.508,-0.137
3/24/2023 12:24:07.670,1.152,0.555,-0.145
3/24/2023 12:24:07.680,1.18,0.605,-0.168
3/24/2023 12:24:07.690,1.23,0.648,-0.195
3/24/2023 12:24:07.700,1.313,0.699,-0.211
3/24/2023 12:24:07.710,1.418,0.762,-0.211
3/24/2023 12:24:07.720,1.504,0.848,-0.191
3/24/2023 12:24:07.730,1.539,0.918,-0.16
3/24/2023 12:24:07.740,1.52,0.934,-0.141
3/24/2023 12:24:07.750,1.461,0.895,-0.137
3/24/2023 12:24:07.760,1.43,0.797,-0.133
3/24/2023 12:24:07.770,1.438,0.695,-0.113
3/24/2023 12:24:07.780,1.469,0.629,-0.055
3/24/2023 12:24:07.790,1.457,0.609,0.008
3/24/2023 12:24:07.800,1.383,0.617,0.059
3/24/2023 12:24:07.810,1.254,0.621,0.086
3/24/2023 12:24:07.820,1.109,0.621,0.078
3/24/2023 12:24:07.830,0.965,0.613,0.043
3/24/2023 12:24:07.840,0.844,0.602,-0.012
3/24/2023 12:24:07.850,0.793,0.594,-0.074
3/24/2023 12:24:07.860,0.832,0.609,-0.125
3/24/2023 12:24:07.870,0.961,0.633,-0.16
3/24/2023 12:24:07.880,1.145,0.664,-0.199
3/24/2023 12:24:07.890,1.332,0.668,-0.223
3/24/2023 12:24:07.900,1.488,0.641,-0.242
3/24/2023 12:24:07.910,1.582,0.59,-0.246
3/24/2023 12:24:07.920,1.59,0.527,-0.23
3/24/2023 12:24:07.930,1.523,0.465,-0.191
3/24/2023 12:24:07.940,1.406,0.402,-0.145
3/24/2023 12:24:07.950,1.281,0.344,-0.098
3/24/2023 12:24:07.960,1.164,0.285,-0.047
3/24/2023 12:24:07.970,1.055,0.234,-0.02
3/24/2023 12:24:07.980,0.969,0.195,0.012
3/24/2023 12:24:07.990,0.906,0.152,0.023
3/24/2023 12:24:08.000,0.852,0.133,0.012
3/24/2023 12:24:08.010,0.82,0.141,-0.004
3/24/2023 12:24:08.020,0.805,0.156,-0.023
3/24/2023 12:24:08.030,0.793,0.176,-0.035
3/24/2023 12:24:08.040,0.793,0.188,-0.051
3/24/2023 12:24:08.050,0.801,0.207,-0.063
3/24/2023 12:24:08.060,0.828,0.227,-0.082
3/24/2023 12:24:08.070,0.871,0.242,-0.102
3/24/2023 12:24:08.080,0.918,0.258,-0.129
3/24/2023 12:24:08.090,0.973,0.258,-0.156
3/24/2023 12:24:08.100,1.027,0.246,-0.168
3/24/2023 12:24:08.110,1.082,0.238,-0.168
3/24/2023 12:24:08.120,1.125,0.23,-0.16
3/24/2023 12:24:08.130,1.156,0.23,-0.145
3/24/2023 12:24:08.140,1.168,0.234,-0.121
3/24/2023 12:24:08.150,1.168,0.238,-0.098
3/24/2023 12:24:08.160,1.16,0.234,-0.082
3/24/2023 12:24:08.170,1.16,0.223,-0.078
3/24/2023 12:24:08.180,1.168,0.195,-0.082
3/24/2023 12:24:08.190,1.18,0.172,-0.082
3/24/2023 12:24:08.200,1.172,0.152,-0.074
3/24/2023 12:24:08.210,1.145,0.148,-0.063
3/24/2023 12:24:08.220,1.109,0.152,-0.031
3/24/2023 12:24:08.230,1.063,0.16,-0.004
3/24/2023 12:24:08.240,1.02,0.168,0.027
3/24/2023 12:24:08.250,0.988,0.164,0.063
3/24/2023 12:24:08.260,0.996,0.16,0.055
3/24/2023 12:24:08.270,1.035,0.16,0.035
3/24/2023 12:24:08.280,1.074,0.137,0.008
3/24/2023 12:24:08.290,1.074,0.109,-0.02
3/24/2023 12:24:08.300,1.047,0.094,-0.043
3/24/2023 12:24:08.310,0.992,0.102,-0.047
3/24/2023 12:24:08.320,0.941,0.117,-0.043
3/24/2023 12:24:08.330,0.906,0.145,-0.039
3/24/2023 12:24:08.340,0.902,0.176,-0.035
3/24/2023 12:24:08.350,0.941,0.215,-0.039
3/24/2023 12:24:08.360,0.992,0.238,-0.047
3/24/2023 12:24:08.370,1.051,0.25,-0.043
3/24/2023 12:24:08.380,1.109,0.262,-0.039
3/24/2023 12:24:08.390,1.16,0.281,-0.012
3/24/2023 12:24:08.400,1.188,0.313,0.031
3/24/2023 12:24:08.410,1.176,0.352,0.066
3/24/2023 12:24:08.420,1.129,0.363,0.094
3/24/2023 12:24:08.430,1.074,0.359,0.105
3/24/2023 12:24:08.440,1.012,0.336,0.102
3/24/2023 12:24:08.450,0.941,0.301,0.082
3/24/2023 12:24:08.460,0.883,0.254,0.07
3/24/2023 12:24:08.470,0.82,0.211,0.059
3/24/2023 12:24:08.480,0.773,0.164,0.043
3/24/2023 12:24:08.490,0.738,0.137,0.027
3/24/2023 12:24:08.500,0.715,0.129,0
3/24/2023 12:24:08.510,0.719,0.133,-0.035
3/24/2023 12:24:08.520,0.742,0.156,-0.055
3/24/2023 12:24:08.530,0.781,0.188,-0.059
3/24/2023 12:24:08.540,0.816,0.227,-0.066
3/24/2023 12:24:08.550,0.855,0.266,-0.09
3/24/2023 12:24:08.560,0.898,0.293,-0.121
3/24/2023 12:24:08.570,0.957,0.313,-0.156
3/24/2023 12:24:08.580,1.043,0.34,-0.184
3/24/2023 12:24:08.590,1.148,0.375,-0.188
3/24/2023 12:24:08.600,1.258,0.426,-0.188
3/24/2023 12:24:08.610,1.336,0.492,-0.203
3/24/2023 12:24:08.620,1.375,0.547,-0.227
3/24/2023 12:24:08.630,1.383,0.578,-0.25
3/24/2023 12:24:08.640,1.391,0.605,-0.273
3/24/2023 12:24:08.650,1.398,0.648,-0.281
3/24/2023 12:24:08.660,1.434,0.719,-0.277
3/24/2023 12:24:08.670,1.484,0.813,-0.266
3/24/2023 12:24:08.680,1.5,0.914,-0.258
3/24/2023 12:24:08.690,1.477,0.988,-0.258
3/24/2023 12:24:08.700,1.426,1.012,-0.254
3/24/2023 12:24:08.710,1.367,0.957,-0.234
3/24/2023 12:24:08.720,1.324,0.863,-0.23
3/24/2023 12:24:08.730,1.34,0.773,-0.195
3/24/2023 12:24:08.740,1.402,0.73,-0.109
3/24/2023 12:24:08.750,1.395,0.707,-0.012
3/24/2023 12:24:08.760,1.273,0.684,0.055
3/24/2023 12:24:08.770,1.121,0.664,0.074
3/24/2023 12:24:08.780,1.004,0.668,0.07
3/24/2023 12:24:08.790,0.926,0.672,0.051
3/24/2023 12:24:08.800,0.871,0.688,0.016
3/24/2023 12:24:08.810,0.859,0.703,-0.031
3/24/2023 12:24:08.820,0.895,0.738,-0.074
3/24/2023 12:24:08.830,0.98,0.75,-0.105
3/24/2023 12:24:08.840,1.09,0.746,-0.148
3/24/2023 12:24:08.850,1.227,0.723,-0.184
3/24/2023 12:24:08.860,1.367,0.684,-0.195
3/24/2023 12:24:08.870,1.492,0.641,-0.176
3/24/2023 12:24:08.880,1.574,0.582,-0.148
3/24/2023 12:24:08.890,1.563,0.5,-0.121
3/24/2023 12:24:08.900,1.484,0.395,-0.094
3/24/2023 12:24:08.910,1.379,0.289,-0.066
3/24/2023 12:24:08.920,1.273,0.199,-0.035
3/24/2023 12:24:08.930,1.184,0.133,-0.008
3/24/2023 12:24:08.940,1.109,0.082,0.008
3/24/2023 12:24:08.950,1.035,0.059,0.004
3/24/2023 12:24:08.960,0.969,0.063,0
3/24/2023 12:24:08.970,0.914,0.086,-0.008
3/24/2023 12:24:08.980,0.867,0.117,-0.008
3/24/2023 12:24:08.990,0.828,0.145,-0.012
3/24/2023 12:24:09.000,0.781,0.176,-0.02
3/24/2023 12:24:09.010,0.762,0.203,-0.02
3/24/2023 12:24:09.020,0.742,0.227,-0.031
3/24/2023 12:24:09.030,0.734,0.246,-0.055
3/24/2023 12:24:09.040,0.75,0.258,-0.074
3/24/2023 12:24:09.050,0.781,0.266,-0.09
3/24/2023 12:24:09.060,0.828,0.266,-0.102
3/24/2023 12:24:09.070,0.895,0.27,-0.109
3/24/2023 12:24:09.080,0.965,0.273,-0.109
3/24/2023 12:24:09.090,1.035,0.27,-0.121
3/24/2023 12:24:09.100,1.082,0.258,-0.133
3/24/2023 12:24:09.110,1.129,0.238,-0.148
3/24/2023 12:24:09.120,1.176,0.215,-0.16
3/24/2023 12:24:09.130,1.242,0.207,-0.152
3/24/2023 12:24:09.140,1.293,0.215,-0.148
3/24/2023 12:24:09.150,1.316,0.219,-0.137
3/24/2023 12:24:09.160,1.305,0.203,-0.109
3/24/2023 12:24:09.170,1.262,0.172,-0.07
3/24/2023 12:24:09.180,1.191,0.133,-0.027
3/24/2023 12:24:09.190,1.105,0.094,0.012
3/24/2023 12:24:09.200,1.043,0.059,0.051
3/24/2023 12:24:09.210,1.023,0.016,0.063
3/24/2023 12:24:09.220,1.098,-0.023,0.051
3/24/2023 12:24:09.230,1.215,-0.047,0.035
3/24/2023 12:24:09.240,1.273,-0.055,0.008
3/24/2023 12:24:09.250,1.246,-0.043,-0.012
3/24/2023 12:24:09.260,1.176,-0.012,-0.012
3/24/2023 12:24:09.270,1.102,0.027,-0.012
3/24/2023 12:24:09.280,1.02,0.063,-0.008
3/24/2023 12:24:09.290,0.977,0.094,-0.012
3/24/2023 12:24:09.300,0.988,0.141,-0.02
3/24/2023 12:24:09.310,1.051,0.191,-0.039
3/24/2023 12:24:09.320,1.133,0.234,-0.059
3/24/2023 12:24:09.330,1.211,0.277,-0.07
3/24/2023 12:24:09.340,1.285,0.316,-0.07
3/24/2023 12:24:09.350,1.332,0.359,-0.059
3/24/2023 12:24:09.360,1.324,0.391,-0.027
3/24/2023 12:24:09.370,1.262,0.414,0.023
3/24/2023 12:24:09.380,1.172,0.418,0.059
3/24/2023 12:24:09.390,1.082,0.41,0.09
3/24/2023 12:24:09.400,0.992,0.371,0.109
3/24/2023 12:24:09.410,0.906,0.309,0.109
3/24/2023 12:24:09.420,0.836,0.238,0.098
3/24/2023 12:24:09.430,0.785,0.16,0.086
3/24/2023 12:24:09.440,0.75,0.09,0.066
3/24/2023 12:24:09.450,0.727,0.051,0.043
3/24/2023 12:24:09.460,0.719,0.039,0.023
3/24/2023 12:24:09.470,0.715,0.066,0.004
3/24/2023 12:24:09.480,0.723,0.109,-0.016
3/24/2023 12:24:09.490,0.734,0.148,-0.031
3/24/2023 12:24:09.500,0.746,0.18,-0.051
3/24/2023 12:24:09.510,0.789,0.215,-0.063
3/24/2023 12:24:09.520,0.836,0.254,-0.066
3/24/2023 12:24:09.530,0.883,0.297,-0.07
3/24/2023 12:24:09.540,0.93,0.352,-0.082
3/24/2023 12:24:09.550,0.973,0.402,-0.109
3/24/2023 12:24:09.560,1.02,0.453,-0.133
3/24/2023 12:24:09.570,1.078,0.512,-0.141
3/24/2023 12:24:09.580,1.129,0.586,-0.145
3/24/2023 12:24:09.590,1.176,0.656,-0.16
3/24/2023 12:24:09.600,1.234,0.73,-0.18
3/24/2023 12:24:09.610,1.301,0.797,-0.188
3/24/2023 12:24:09.620,1.367,0.863,-0.188
3/24/2023 12:24:09.630,1.426,0.934,-0.184
3/24/2023 12:24:09.640,1.457,0.988,-0.18
3/24/2023 12:24:09.650,1.453,1.02,-0.16
3/24/2023 12:24:09.660,1.406,1.008,-0.137
3/24/2023 12:24:09.670,1.328,0.926,-0.109
3/24/2023 12:24:09.680,1.266,0.777,-0.09
3/24/2023 12:24:09.690,1.266,0.621,-0.059
3/24/2023 12:24:09.700,1.348,0.516,-0.004
3/24/2023 12:24:09.710,1.422,0.477,0.051
3/24/2023 12:24:09.720,1.398,0.465,0.098
3/24/2023 12:24:09.730,1.289,0.473,0.121
3/24/2023 12:24:09.740,1.145,0.488,0.113
3/24/2023 12:24:09.750,1.016,0.523,0.094
3/24/2023 12:24:09.760,0.91,0.551,0.027
3/24/2023 12:24:09.770,0.859,0.578,-0.047
3/24/2023 12:24:09.780,0.895,0.621,-0.113
3/24/2023 12:24:09.790,1.016,0.68,-0.152
3/24/2023 12:24:09.800,1.191,0.734,-0.188
3/24/2023 12:24:09.810,1.379,0.762,-0.211
3/24/2023 12:24:09.820,1.551,0.746,-0.242
3/24/2023 12:24:09.830,1.664,0.68,-0.25
3/24/2023 12:24:09.840,1.695,0.598,-0.242
3/24/2023 12:24:09.850,1.656,0.512,-0.211
3/24/2023 12:24:09.860,1.566,0.441,-0.172
3/24/2023 12:24:09.870,1.461,0.367,-0.129
3/24/2023 12:24:09.880,1.352,0.301,-0.086
3/24/2023 12:24:09.890,1.254,0.238,-0.043
3/24/2023 12:24:09.900,1.156,0.188,-0.004
3/24/2023 12:24:09.910,1.074,0.152,0.02
3/24/2023 12:24:09.920,1.02,0.133,0.031
3/24/2023 12:24:09.930,0.984,0.117,0.027
3/24/2023 12:24:09.940,0.961,0.117,0.012
3/24/2023 12:24:09.950,0.938,0.129,-0.008
3/24/2023 12:24:09.960,0.914,0.145,-0.035
3/24/2023 12:24:09.970,0.891,0.156,-0.063
3/24/2023 12:24:09.980,0.875,0.176,-0.09
3/24/2023 12:24:09.990,0.863,0.191,-0.105
3/24/2023 12:24:10.000,0.859,0.215,-0.129
3/24/2023 12:24:10.010,0.875,0.227,-0.145
3/24/2023 12:24:10.020,0.898,0.242,-0.164
3/24/2023 12:24:10.030,0.926,0.25,-0.172
3/24/2023 12:24:10.040,0.957,0.258,-0.176
3/24/2023 12:24:10.050,0.996,0.258,-0.18
3/24/2023 12:24:10.060,1.027,0.262,-0.172
3/24/2023 12:24:10.070,1.063,0.254,-0.168
3/24/2023 12:24:10.080,1.086,0.246,-0.152
3/24/2023 12:24:10.090,1.109,0.242,-0.141
3/24/2023 12:24:10.100,1.141,0.238,-0.141
3/24/2023 12:24:10.110,1.172,0.23,-0.152
3/24/2023 12:24:10.120,1.188,0.219,-0.164
3/24/2023 12:24:10.130,1.168,0.188,-0.172
3/24/2023 12:24:10.140,1.117,0.172,-0.164
3/24/2023 12:24:10.150,1.051,0.164,-0.125
3/24/2023 12:24:10.160,0.992,0.176,-0.078
3/24/2023 12:24:10.170,0.965,0.195,-0.051
3/24/2023 12:24:10.180,0.988,0.207,-0.047
3/24/2023 12:24:10.190,1.055,0.199,-0.074
3/24/2023 12:24:10.200,1.09,0.176,-0.105
3/24/2023 12:24:10.210,1.063,0.148,-0.109
3/24/2023 12:24:10.220,0.988,0.137,-0.098
3/24/2023 12:24:10.230,0.914,0.145,-0.063
3/24/2023 12:24:10.240,0.848,0.164,-0.027
3/24/2023 12:24:10.250,0.813,0.191,-0.02
3/24/2023 12:24:10.260,0.832,0.211,-0.027
3/24/2023 12:24:10.270,0.895,0.215,-0.039
3/24/2023 12:24:10.280,0.961,0.211,-0.051
3/24/2023 12:24:10.290,1.039,0.203,-0.055
3/24/2023 12:24:10.300,1.109,0.211,-0.063
3/24/2023 12:24:10.310,1.164,0.238,-0.066
3/24/2023 12:24:10.320,1.191,0.266,-0.059
3/24/2023 12:24:10.330,1.184,0.305,-0.012
3/24/2023 12:24:10.340,1.133,0.344,0.066
3/24/2023 12:24:10.350,1.051,0.371,0.129
3/24/2023 12:24:10.360,0.98,0.379,0.176
3/24/2023 12:24:10.370,0.914,0.352,0.195
3/24/2023 12:24:10.380,0.863,0.285,0.176
3/24/2023 12:24:10.390,0.813,0.188,0.141
3/24/2023 12:24:10.400,0.777,0.098,0.098
3/24/2023 12:24:10.410,0.758,0.035,0.059
3/24/2023 12:24:10.420,0.754,0.008,0.051
3/24/2023 12:24:10.430,0.754,0.023,0.047
3/24/2023 12:24:10.440,0.766,0.07,0.043
3/24/2023 12:24:10.450,0.793,0.117,0.039
3/24/2023 12:24:10.460,0.836,0.152,0.023
3/24/2023 12:24:10.470,0.879,0.164,0
3/24/2023 12:24:10.480,0.93,0.184,-0.031
3/24/2023 12:24:10.490,0.973,0.215,-0.059
3/24/2023 12:24:10.500,1.012,0.258,-0.066
3/24/2023 12:24:10.510,1.074,0.336,-0.055
3/24/2023 12:24:10.520,1.168,0.445,-0.043
3/24/2023 12:24:10.530,1.27,0.559,-0.035
3/24/2023 12:24:10.540,1.359,0.676,-0.039
3/24/2023 12:24:10.550,1.422,0.785,-0.07
3/24/2023 12:24:10.560,1.465,0.871,-0.121
3/24/2023 12:24:10.570,1.516,0.953,-0.18
3/24/2023 12:24:10.580,1.582,1.047,-0.223
3/24/2023 12:24:10.590,1.656,1.156,-0.242
3/24/2023 12:24:10.600,1.707,1.234,-0.25
3/24/2023 12:24:10.610,1.711,1.242,-0.254
3/24/2023 12:24:10.620,1.652,1.141,-0.246
3/24/2023 12:24:10.630,1.574,0.945,-0.211
3/24/2023 12:24:10.640,1.492,0.695,-0.129
3/24/2023 12:24:10.650,1.434,0.473,-0.051
3/24/2023 12:24:10.660,1.418,0.32,0.023
3/24/2023 12:24:10.670,1.426,0.258,0.102
3/24/2023 12:24:10.680,1.387,0.258,0.16
3/24/2023 12:24:10.690,1.262,0.285,0.191
3/24/2023 12:24:10.700,1.098,0.332,0.18
3/24/2023 12:24:10.710,0.918,0.383,0.129
3/24/2023 12:24:10.720,0.773,0.43,0.047
3/24/2023 12:24:10.730,0.695,0.484,-0.047
3/24/2023 12:24:10.740,0.703,0.566,-0.129
3/24/2023 12:24:10.750,0.793,0.66,-0.195
3/24/2023 12:24:10.760,0.91,0.738,-0.254
3/24/2023 12:24:10.770,1.031,0.781,-0.313
3/24/2023 12:24:10.780,1.141,0.793,-0.352
3/24/2023 12:24:10.790,1.258,0.77,-0.371
3/24/2023 12:24:10.800,1.355,0.727,-0.359
3/24/2023 12:24:10.810,1.41,0.664,-0.34
3/24/2023 12:24:10.820,1.391,0.598,-0.301
3/24/2023 12:24:10.830,1.313,0.531,-0.246
3/24/2023 12:24:10.840,1.215,0.461,-0.195
3/24/2023 12:24:10.850,1.121,0.387,-0.137
3/24/2023 12:24:10.860,1.059,0.305,-0.078
3/24/2023 12:24:10.870,1.023,0.23,-0.047
3/24/2023 12:24:10.880,1,0.168,-0.02
3/24/2023 12:24:10.890,0.973,0.117,-0.012
3/24/2023 12:24:10.900,0.949,0.098,-0.008
3/24/2023 12:24:10.910,0.934,0.09,-0.012
3/24/2023 12:24:10.920,0.926,0.094,-0.023
3/24/2023 12:24:10.930,0.922,0.113,-0.035
3/24/2023 12:24:10.940,0.93,0.145,-0.055
3/24/2023 12:24:10.950,0.938,0.176,-0.078
3/24/2023 12:24:10.960,0.961,0.199,-0.098
3/24/2023 12:24:10.970,0.984,0.223,-0.113
3/24/2023 12:24:10.980,1.012,0.246,-0.133
3/24/2023 12:24:10.990,1.047,0.258,-0.145
3/24/2023 12:24:11.000,1.082,0.266,-0.16
3/24/2023 12:24:11.010,1.113,0.27,-0.164
3/24/2023 12:24:11.020,1.129,0.266,-0.168
3/24/2023 12:24:11.030,1.121,0.25,-0.156
3/24/2023 12:24:11.040,1.109,0.234,-0.141
3/24/2023 12:24:11.050,1.117,0.227,-0.121
3/24/2023 12:24:11.060,1.152,0.223,-0.117
3/24/2023 12:24:11.070,1.207,0.219,-0.121
3/24/2023 12:24:11.080,1.258,0.215,-0.125
3/24/2023 12:24:11.090,1.277,0.203,-0.125
3/24/2023 12:24:11.100,1.254,0.203,-0.113
3/24/2023 12:24:11.110,1.207,0.188,-0.102
3/24/2023 12:24:11.120,1.184,0.188,-0.094
3/24/2023 12:24:11.130,1.188,0.184,-0.105
3/24/2023 12:24:11.140,1.188,0.168,-0.133
3/24/2023 12:24:11.150,1.164,0.152,-0.156
3/24/2023 12:24:11.160,1.121,0.137,-0.156
3/24/2023 12:24:11.170,1.063,0.145,-0.125
3/24/2023 12:24:11.180,0.98,0.172,-0.059
3/24/2023 12:24:11.190,0.879,0.207,0.023
3/24/2023 12:24:11.200,0.785,0.238,0.09
3/24/2023 12:24:11.210,0.754,0.254,0.098
3/24/2023 12:24:11.220,0.781,0.242,0.082
3/24/2023 12:24:11.230,0.855,0.219,0.051
3/24/2023 12:24:11.240,0.957,0.191,0.012
3/24/2023 12:24:11.250,1.059,0.18,-0.023
3/24/2023 12:24:11.260,1.141,0.172,-0.051
3/24/2023 12:24:11.270,1.184,0.172,-0.066
3/24/2023 12:24:11.280,1.184,0.176,-0.07
3/24/2023 12:24:11.290,1.148,0.188,-0.063
3/24/2023 12:24:11.300,1.094,0.199,-0.039
3/24/2023 12:24:11.310,1.023,0.211,-0.008
3/24/2023 12:24:11.320,0.949,0.211,0.039
3/24/2023 12:24:11.330,0.871,0.211,0.09
3/24/2023 12:24:11.340,0.809,0.195,0.133
3/24/2023 12:24:11.350,0.777,0.176,0.168
3/24/2023 12:24:11.360,0.766,0.148,0.18
3/24/2023 12:24:11.370,0.762,0.137,0.156
3/24/2023 12:24:11.380,0.77,0.133,0.113
3/24/2023 12:24:11.390,0.789,0.148,0.063
3/24/2023 12:24:11.400,0.813,0.168,0.02
3/24/2023 12:24:11.410,0.832,0.199,-0.012
3/24/2023 12:24:11.420,0.852,0.223,-0.035
3/24/2023 12:24:11.430,0.875,0.246,-0.039
3/24/2023 12:24:11.440,0.91,0.27,-0.035
3/24/2023 12:24:11.450,0.941,0.301,-0.023
3/24/2023 12:24:11.460,0.973,0.336,-0.016
3/24/2023 12:24:11.470,0.996,0.371,-0.027
3/24/2023 12:24:11.480,1.02,0.41,-0.051
3/24/2023 12:24:11.490,1.047,0.441,-0.082
3/24/2023 12:24:11.500,1.07,0.477,-0.113
3/24/2023 12:24:11.510,1.121,0.516,-0.133
3/24/2023 12:24:11.520,1.176,0.57,-0.16
3/24/2023 12:24:11.530,1.246,0.617,-0.18
3/24/2023 12:24:11.540,1.328,0.672,-0.207
3/24/2023 12:24:11.550,1.418,0.723,-0.23
3/24/2023 12:24:11.560,1.5,0.766,-0.242
3/24/2023 12:24:11.570,1.563,0.801,-0.242
3/24/2023 12:24:11.580,1.578,0.82,-0.223
3/24/2023 12:24:11.590,1.555,0.824,-0.199
3/24/2023 12:24:11.600,1.48,0.797,-0.188
3/24/2023 12:24:11.610,1.41,0.719,-0.184
3/24/2023 12:24:11.620,1.402,0.641,-0.168
3/24/2023 12:24:11.630,1.457,0.594,-0.129
3/24/2023 12:24:11.640,1.492,0.59,-0.082
3/24/2023 12:24:11.650,1.441,0.613,-0.035
3/24/2023 12:24:11.660,1.328,0.625,-0.004
3/24/2023 12:24:11.670,1.199,0.621,0.004
3/24/2023 12:24:11.680,1.063,0.59,-0.016
3/24/2023 12:24:11.690,0.922,0.563,-0.059
3/24/2023 12:24:11.700,0.82,0.523,-0.117
3/24/2023 12:24:11.710,0.785,0.504,-0.156
3/24/2023 12:24:11.720,0.844,0.523,-0.18
3/24/2023 12:24:11.730,0.977,0.559,-0.195
3/24/2023 12:24:11.740,1.129,0.598,-0.207
3/24/2023 12:24:11.750,1.234,0.621,-0.223
3/24/2023 12:24:11.760,1.289,0.625,-0.23
3/24/2023 12:24:11.770,1.313,0.609,-0.223
3/24/2023 12:24:11.780,1.305,0.582,-0.199
3/24/2023 12:24:11.790,1.277,0.551,-0.176
3/24/2023 12:24:11.800,1.211,0.523,-0.145
3/24/2023 12:24:11.810,1.133,0.484,-0.121
3/24/2023 12:24:11.820,1.063,0.438,-0.09
3/24/2023 12:24:11.830,1.004,0.391,-0.063
3/24/2023 12:24:11.840,0.961,0.332,-0.051
3/24/2023 12:24:11.850,0.941,0.285,-0.047
3/24/2023 12:24:11.860,0.938,0.246,-0.039
3/24/2023 12:24:11.870,0.934,0.215,-0.039
3/24/2023 12:24:11.880,0.926,0.195,-0.035
3/24/2023 12:24:11.890,0.91,0.176,-0.043
3/24/2023 12:24:11.900,0.902,0.164,-0.043
3/24/2023 12:24:11.910,0.895,0.16,-0.051
3/24/2023 12:24:11.920,0.891,0.16,-0.055
3/24/2023 12:24:11.930,0.895,0.172,-0.059
3/24/2023 12:24:11.940,0.883,0.188,-0.07
3/24/2023 12:24:11.950,0.875,0.199,-0.078
3/24/2023 12:24:11.960,0.871,0.215,-0.09
3/24/2023 12:24:11.970,0.895,0.215,-0.102
3/24/2023 12:24:11.980,0.93,0.215,-0.109
3/24/2023 12:24:11.990,0.98,0.211,-0.113
3/24/2023 12:24:12.000,1.027,0.211,-0.129
3/24/2023 12:24:12.010,1.09,0.203,-0.133
3/24/2023 12:24:12.020,1.145,0.199,-0.156
3/24/2023 12:24:12.030,1.207,0.199,-0.16
3/24/2023 12:24:12.040,1.277,0.207,-0.164
3/24/2023 12:24:12.050,1.344,0.227,-0.156
3/24/2023 12:24:12.060,1.383,0.254,-0.152
3/24/2023 12:24:12.070,1.379,0.273,-0.148
3/24/2023 12:24:12.080,1.336,0.273,-0.133
3/24/2023 12:24:12.090,1.285,0.246,-0.117
3/24/2023 12:24:12.100,1.215,0.203,-0.098
3/24/2023 12:24:12.110,1.148,0.148,-0.074
3/24/2023 12:24:12.120,1.145,0.102,-0.066
3/24/2023 12:24:12.130,1.191,0.066,-0.082
3/24/2023 12:24:12.140,1.223,0.035,-0.098
3/24/2023 12:24:12.150,1.191,0.02,-0.105
3/24/2023 12:24:12.160,1.109,0.012,-0.109
3/24/2023 12:24:12.170,1.016,0.043,-0.09
3/24/2023 12:24:12.180,0.914,0.082,-0.066
3/24/2023 12:24:12.190,0.82,0.121,-0.047
3/24/2023 12:24:12.200,0.758,0.152,-0.043
3/24/2023 12:24:12.210,0.762,0.18,-0.059
3/24/2023 12:24:12.220,0.809,0.207,-0.07
3/24/2023 12:24:12.230,0.879,0.223,-0.082
3/24/2023 12:24:12.240,0.961,0.246,-0.098
3/24/2023 12:24:12.250,1.035,0.273,-0.113
3/24/2023 12:24:12.260,1.117,0.305,-0.117
3/24/2023 12:24:12.270,1.168,0.34,-0.105
3/24/2023 12:24:12.280,1.168,0.367,-0.074
3/24/2023 12:24:12.290,1.117,0.387,-0.031
3/24/2023 12:24:12.300,1.043,0.395,0.012
3/24/2023 12:24:12.310,0.973,0.387,0.063
3/24/2023 12:24:12.320,0.922,0.355,0.098
3/24/2023 12:24:12.330,0.871,0.301,0.109
3/24/2023 12:24:12.340,0.828,0.223,0.098
3/24/2023 12:24:12.350,0.801,0.141,0.078
3/24/2023 12:24:12.360,0.785,0.082,0.043
3/24/2023 12:24:12.370,0.789,0.059,0.008
3/24/2023 12:24:12.380,0.801,0.055,-0.023
3/24/2023 12:24:12.390,0.816,0.094,-0.051
3/24/2023 12:24:12.400,0.848,0.148,-0.063
3/24/2023 12:24:12.410,0.895,0.199,-0.063
3/24/2023 12:24:12.420,0.941,0.238,-0.059
3/24/2023 12:24:12.430,1,0.277,-0.063
3/24/2023 12:24:12.440,1.074,0.332,-0.063
3/24/2023 12:24:12.450,1.145,0.387,-0.07
3/24/2023 12:24:12.460,1.207,0.441,-0.09
3/24/2023 12:24:12.470,1.254,0.512,-0.102
3/24/2023 12:24:12.480,1.273,0.59,-0.109
3/24/2023 12:24:12.490,1.273,0.672,-0.117
3/24/2023 12:24:12.500,1.262,0.758,-0.129
3/24/2023 12:24:12.510,1.277,0.824,-0.141
3/24/2023 12:24:12.520,1.32,0.891,-0.164
3/24/2023 12:24:12.530,1.387,0.949,-0.176
3/24/2023 12:24:12.540,1.457,0.98,-0.176
3/24/2023 12:24:12.550,1.504,0.988,-0.152
3/24/2023 12:24:12.560,1.5,0.953,-0.125
3/24/2023 12:24:12.570,1.453,0.859,-0.094
3/24/2023 12:24:12.580,1.367,0.707,-0.066
3/24/2023 12:24:12.590,1.297,0.527,-0.051
3/24/2023 12:24:12.600,1.301,0.383,0.004
3/24/2023 12:24:12.610,1.352,0.32,0.074
3/24/2023 12:24:12.620,1.375,0.324,0.113
3/24/2023 12:24:12.630,1.316,0.355,0.121
3/24/2023 12:24:12.640,1.195,0.402,0.109
3/24/2023 12:24:12.650,1.059,0.461,0.063
3/24/2023 12:24:12.660,0.93,0.508,0
3/24/2023 12:24:12.670,0.859,0.574,-0.063
3/24/2023 12:24:12.680,0.863,0.652,-0.133
3/24/2023 12:24:12.690,0.926,0.734,-0.184
3/24/2023 12:24:12.700,1.027,0.797,-0.23
3/24/2023 12:24:12.710,1.148,0.816,-0.277
3/24/2023 12:24:12.720,1.281,0.797,-0.305
3/24/2023 12:24:12.730,1.41,0.742,-0.313
3/24/2023 12:24:12.740,1.508,0.672,-0.297
3/24/2023 12:24:12.750,1.566,0.602,-0.266
3/24/2023 12:24:12.760,1.547,0.535,-0.227
3/24/2023 12:24:12.770,1.477,0.469,-0.176
3/24/2023 12:24:12.780,1.387,0.387,-0.125
3/24/2023 12:24:12.790,1.285,0.309,-0.074
3/24/2023 12:24:12.800,1.195,0.246,-0.039
3/24/2023 12:24:12.810,1.102,0.227,-0.039
3/24/2023 12:24:12.820,1.039,0.211,-0.016
3/24/2023 12:24:12.830,1.004,0.09,0.02
3/24/2023 12:24:12.840,0.965,0.105,0.004
3/24/2023 12:24:12.850,0.93,0.184,-0.012
3/24/2023 12:24:12.860,0.91,0.215,-0.043
3/24/2023 12:24:12.870,0.906,0.215,-0.066
3/24/2023 12:24:12.880,0.93,0.191,-0.094
3/24/2023 12:24:12.890,0.957,0.172,-0.121
3/24/2023 12:24:12.900,0.977,0.184,-0.148
3/24/2023 12:24:12.910,0.996,0.207,-0.176
3/24/2023 12:24:12.920,1.035,0.23,-0.191
3/24/2023 12:24:12.930,1.074,0.254,-0.195
3/24/2023 12:24:12.940,1.117,0.273,-0.199
3/24/2023 12:24:12.950,1.148,0.285,-0.188
3/24/2023 12:24:12.960,1.164,0.285,-0.168
3/24/2023 12:24:12.970,1.172,0.273,-0.152
3/24/2023 12:24:12.980,1.188,0.266,-0.141
3/24/2023 12:24:12.990,1.207,0.246,-0.141
3/24/2023 12:24:13.000,1.211,0.238,-0.145
3/24/2023 12:24:13.010,1.223,0.211,-0.145
3/24/2023 12:24:13.020,1.199,0.191,-0.145
3/24/2023 12:24:13.030,1.156,0.16,-0.117
3/24/2023 12:24:13.040,1.09,0.141,-0.086
3/24/2023 12:24:13.050,1.023,0.125,-0.055
3/24/2023 12:24:13.060,0.965,0.113,-0.023
3/24/2023 12:24:13.070,0.941,0.109,-0.008
3/24/2023 12:24:13.080,0.973,0.094,-0.016
3/24/2023 12:24:13.090,1.027,0.078,-0.043
3/24/2023 12:24:13.100,1.063,0.059,-0.074
3/24/2023 12:24:13.110,1.047,0.047,-0.098
3/24/2023 12:24:13.120,1.008,0.055,-0.094
3/24/2023 12:24:13.130,0.953,0.082,-0.07
3/24/2023 12:24:13.140,0.914,0.121,-0.043
3/24/2023 12:24:13.150,0.895,0.164,-0.027
3/24/2023 12:24:13.160,0.91,0.195,-0.031
3/24/2023 12:24:13.170,0.965,0.203,-0.043
3/24/2023 12:24:13.180,1.027,0.203,-0.063
3/24/2023 12:24:13.190,1.109,0.203,-0.082
3/24/2023 12:24:13.200,1.188,0.215,-0.094
3/24/2023 12:24:13.210,1.242,0.242,-0.086
3/24/2023 12:24:13.220,1.242,0.273,-0.07
3/24/2023 12:24:13.230,1.188,0.305,-0.047
3/24/2023 12:24:13.240,1.117,0.34,-0.004
3/24/2023 12:24:13.250,1.043,0.355,0.055
3/24/2023 12:24:13.260,0.973,0.363,0.102
3/24/2023 12:24:13.270,0.902,0.336,0.105
3/24/2023 12:24:13.280,0.852,0.281,0.082
3/24/2023 12:24:13.290,0.82,0.203,0.055
3/24/2023 12:24:13.300,0.809,0.129,0.02
3/24/2023 12:24:13.310,0.805,0.09,-0.023
3/24/2023 12:24:13.320,0.816,0.094,-0.063
3/24/2023 12:24:13.330,0.828,0.129,-0.082
3/24/2023 12:24:13.340,0.855,0.18,-0.082
3/24/2023 12:24:13.350,0.891,0.223,-0.078
3/24/2023 12:24:13.360,0.934,0.266,-0.078
3/24/2023 12:24:13.370,0.984,0.301,-0.086
3/24/2023 12:24:13.380,1.039,0.332,-0.098
3/24/2023 12:24:13.390,1.094,0.363,-0.109
3/24/2023 12:24:13.400,1.137,0.395,-0.137
3/24/2023 12:24:13.410,1.188,0.43,-0.152
3/24/2023 12:24:13.420,1.254,0.492,-0.152
3/24/2023 12:24:13.430,1.305,0.574,-0.148
3/24/2023 12:24:13.440,1.336,0.656,-0.156
3/24/2023 12:24:13.450,1.367,0.734,-0.18
3/24/2023 12:24:13.460,1.426,0.797,-0.207
3/24/2023 12:24:13.470,1.492,0.855,-0.234
3/24/2023 12:24:13.480,1.559,0.918,-0.242
3/24/2023 12:24:13.490,1.598,0.957,-0.23
3/24/2023 12:24:13.500,1.563,0.957,-0.211
3/24/2023 12:24:13.510,1.508,0.891,-0.184
3/24/2023 12:24:13.520,1.426,0.773,-0.156
3/24/2023 12:24:13.530,1.355,0.625,-0.129
3/24/2023 12:24:13.540,1.34,0.504,-0.094
3/24/2023 12:24:13.550,1.367,0.453,-0.047
3/24/2023 12:24:13.560,1.391,0.469,-0.02
3/24/2023 12:24:13.570,1.352,0.523,-0.012
3/24/2023 12:24:13.580,1.242,0.59,-0.008
3/24/2023 12:24:13.590,1.105,0.641,-0.031
3/24/2023 12:24:13.600,0.969,0.676,-0.078
3/24/2023 12:24:13.610,0.859,0.695,-0.141
3/24/2023 12:24:13.620,0.805,0.707,-0.203
3/24/2023 12:24:13.630,0.828,0.73,-0.254
3/24/2023 12:24:13.640,0.926,0.758,-0.277
3/24/2023 12:24:13.650,1.063,0.777,-0.289
3/24/2023 12:24:13.660,1.195,0.781,-0.293
3/24/2023 12:24:13.670,1.305,0.742,-0.285
3/24/2023 12:24:13.680,1.371,0.688,-0.273
3/24/2023 12:24:13.690,1.41,0.629,-0.25
3/24/2023 12:24:13.700,1.402,0.57,-0.211
3/24/2023 12:24:13.710,1.355,0.516,-0.16
3/24/2023 12:24:13.720,1.27,0.449,-0.113
3/24/2023 12:24:13.730,1.18,0.383,-0.066
3/24/2023 12:24:13.740,1.102,0.316,-0.031
3/24/2023 12:24:13.750,1.035,0.258,-0.016
3/24/2023 12:24:13.760,0.992,0.219,-0.008
3/24/2023 12:24:13.770,0.953,0.195,-0.008
3/24/2023 12:24:13.780,0.93,0.184,-0.012
3/24/2023 12:24:13.790,0.914,0.191,-0.027
3/24/2023 12:24:13.800,0.91,0.195,-0.055
3/24/2023 12:24:13.810,0.914,0.207,-0.066
3/24/2023 12:24:13.820,0.922,0.219,-0.086
3/24/2023 12:24:13.830,0.938,0.227,-0.098
3/24/2023 12:24:13.840,0.949,0.227,-0.105
3/24/2023 12:24:13.850,0.98,0.238,-0.121
3/24/2023 12:24:13.860,1.016,0.25,-0.141
3/24/2023 12:24:13.870,1.063,0.262,-0.141
3/24/2023 12:24:13.880,1.113,0.266,-0.148
3/24/2023 12:24:13.890,1.168,0.266,-0.148
3/24/2023 12:24:13.900,1.223,0.262,-0.141
3/24/2023 12:24:13.910,1.254,0.25,-0.145
3/24/2023 12:24:13.920,1.266,0.238,-0.145
3/24/2023 12:24:13.930,1.27,0.227,-0.145
3/24/2023 12:24:13.940,1.277,0.211,-0.156
3/24/2023 12:24:13.950,1.309,0.199,-0.16
3/24/2023 12:24:13.960,1.352,0.195,-0.164
3/24/2023 12:24:13.970,1.367,0.188,-0.164
3/24/2023 12:24:13.980,1.34,0.164,-0.16
3/24/2023 12:24:13.990,1.262,0.129,-0.148
3/24/2023 12:24:14.000,1.152,0.09,-0.121
3/24/2023 12:24:14.010,1.059,0.051,-0.086
3/24/2023 12:24:14.020,1,0.02,-0.07
3/24/2023 12:24:14.030,1.008,-0.004,-0.066
3/24/2023 12:24:14.040,1.055,-0.023,-0.07
3/24/2023 12:24:14.050,1.078,-0.035,-0.082
3/24/2023 12:24:14.060,1.039,-0.027,-0.086
3/24/2023 12:24:14.070,0.977,-0.004,-0.078
3/24/2023 12:24:14.080,0.914,0.035,-0.074
3/24/2023 12:24:14.090,0.859,0.082,-0.066
3/24/2023 12:24:14.100,0.828,0.113,-0.066
3/24/2023 12:24:14.110,0.828,0.148,-0.078
3/24/2023 12:24:14.120,0.863,0.172,-0.094
3/24/2023 12:24:14.130,0.93,0.195,-0.113
3/24/2023 12:24:14.140,1.008,0.223,-0.125
3/24/2023 12:24:14.150,1.082,0.25,-0.129
3/24/2023 12:24:14.160,1.152,0.266,-0.125
3/24/2023 12:24:14.170,1.184,0.289,-0.109
3/24/2023 12:24:14.180,1.176,0.316,-0.082
3/24/2023 12:24:14.190,1.129,0.348,-0.008
3/24/2023 12:24:14.200,1.051,0.375,0.082
3/24/2023 12:24:14.210,0.973,0.395,0.148
3/24/2023 12:24:14.220,0.902,0.375,0.164
3/24/2023 12:24:14.230,0.848,0.309,0.156
3/24/2023 12:24:14.240,0.805,0.203,0.137
3/24/2023 12:24:14.250,0.777,0.098,0.105
3/24/2023 12:24:14.260,0.766,0.027,0.074
3/24/2023 12:24:14.270,0.766,-0.004,0.055
3/24/2023 12:24:14.280,0.77,-0.004,0.023
3/24/2023 12:24:14.290,0.789,0.035,0
3/24/2023 12:24:14.300,0.82,0.09,-0.016
3/24/2023 12:24:14.310,0.859,0.141,-0.035
3/24/2023 12:24:14.320,0.91,0.188,-0.059
3/24/2023 12:24:14.330,0.973,0.227,-0.086
3/24/2023 12:24:14.340,1.039,0.266,-0.117
3/24/2023 12:24:14.350,1.102,0.32,-0.137
3/24/2023 12:24:14.360,1.156,0.391,-0.148
3/24/2023 12:24:14.370,1.207,0.48,-0.164
3/24/2023 12:24:14.380,1.262,0.57,-0.172
3/24/2023 12:24:14.390,1.324,0.66,-0.184
3/24/2023 12:24:14.400,1.371,0.754,-0.211
3/24/2023 12:24:14.410,1.414,0.828,-0.242
3/24/2023 12:24:14.420,1.445,0.891,-0.27
3/24/2023 12:24:14.430,1.484,0.941,-0.281
3/24/2023 12:24:14.440,1.527,0.973,-0.277
3/24/2023 12:24:14.450,1.551,0.984,-0.266
3/24/2023 12:24:14.460,1.535,0.957,-0.238
3/24/2023 12:24:14.470,1.48,0.875,-0.211
3/24/2023 12:24:14.480,1.395,0.746,-0.168
3/24/2023 12:24:14.490,1.316,0.609,-0.113
3/24/2023 12:24:14.500,1.289,0.504,-0.055
3/24/2023 12:24:14.510,1.336,0.449,-0.008
3/24/2023 12:24:14.520,1.383,0.438,0.031
3/24/2023 12:24:14.530,1.375,0.453,0.059
3/24/2023 12:24:14.540,1.293,0.484,0.082
3/24/2023 12:24:14.550,1.164,0.535,0.074
3/24/2023 12:24:14.560,1.031,0.574,0.035
3/24/2023 12:24:14.570,0.902,0.598,-0.031
3/24/2023 12:24:14.580,0.816,0.613,-0.094
3/24/2023 12:24:14.590,0.801,0.641,-0.141
3/24/2023 12:24:14.600,0.855,0.676,-0.18
3/24/2023 12:24:14.610,0.965,0.715,-0.211
3/24/2023 12:24:14.620,1.113,0.734,-0.234
3/24/2023 12:24:14.630,1.266,0.723,-0.242
3/24/2023 12:24:14.640,1.383,0.676,-0.242
3/24/2023 12:24:14.650,1.453,0.621,-0.23
3/24/2023 12:24:14.660,1.457,0.57,-0.203
3/24/2023 12:24:14.670,1.398,0.52,-0.164
3/24/2023 12:24:14.680,1.305,0.461,-0.121
3/24/2023 12:24:14.690,1.203,0.395,-0.09
3/24/2023 12:24:14.700,1.117,0.324,-0.055
3/24/2023 12:24:14.710,1.043,0.266,-0.023
3/24/2023 12:24:14.720,0.98,0.215,-0.008
3/24/2023 12:24:14.730,0.934,0.176,-0.008
3/24/2023 12:24:14.740,0.922,0.145,0.031
3/24/2023 12:24:14.750,0.91,0.141,0.008
3/24/2023 12:24:14.760,0.91,0.16,-0.016
3/24/2023 12:24:14.770,0.914,0.184,-0.039
3/24/2023 12:24:14.780,0.906,0.188,-0.059
3/24/2023 12:24:14.790,0.914,0.188,-0.082
3/24/2023 12:24:14.800,0.93,0.191,-0.098
3/24/2023 12:24:14.810,0.953,0.211,-0.113
3/24/2023 12:24:14.820,0.988,0.242,-0.133
3/24/2023 12:24:14.830,1.043,0.262,-0.141
3/24/2023 12:24:14.840,1.102,0.277,-0.152
3/24/2023 12:24:14.850,1.164,0.297,-0.152
3/24/2023 12:24:14.860,1.219,0.305,-0.156
3/24/2023 12:24:14.870,1.238,0.285,-0.16
3/24/2023 12:24:14.880,1.246,0.262,-0.16
3/24/2023 12:24:14.890,1.25,0.238,-0.156
3/24/2023 12:24:14.900,1.277,0.215,-0.164
3/24/2023 12:24:14.910,1.336,0.203,-0.168
3/24/2023 12:24:14.920,1.383,0.191,-0.176
3/24/2023 12:24:14.930,1.383,0.156,-0.176
3/24/2023 12:24:14.940,1.32,0.105,-0.176
3/24/2023 12:24:14.950,1.207,0.063,-0.152
3/24/2023 12:24:14.960,1.09,0.035,-0.121
3/24/2023 12:24:14.970,1.012,0.02,-0.086
3/24/2023 12:24:14.980,0.977,0.004,-0.066
3/24/2023 12:24:14.990,1.008,0.004,-0.063
3/24/2023 12:24:15.000,1.055,-0.008,-0.074
3/24/2023 12:24:15.010,1.07,0.004,-0.094
3/24/2023 12:24:15.020,1.039,0.035,-0.105
3/24/2023 12:24:15.030,0.973,0.078,-0.109
3/24/2023 12:24:15.040,0.895,0.117,-0.105
3/24/2023 12:24:15.050,0.816,0.152,-0.105
3/24/2023 12:24:15.060,0.777,0.18,-0.113
3/24/2023 12:24:15.070,0.785,0.203,-0.117
3/24/2023 12:24:15.080,0.855,0.234,-0.121
3/24/2023 12:24:15.090,0.93,0.266,-0.125
3/24/2023 12:24:15.100,1,0.285,-0.129
3/24/2023 12:24:15.110,1.07,0.297,-0.125
3/24/2023 12:24:15.120,1.137,0.297,-0.113
3/24/2023 12:24:15.130,1.172,0.309,-0.09
3/24/2023 12:24:15.140,1.16,0.324,-0.059
3/24/2023 12:24:15.150,1.105,0.332,-0.031
3/24/2023 12:24:15.160,1.031,0.336,0
3/24/2023 12:24:15.170,0.965,0.316,0.039
3/24/2023 12:24:15.180,0.898,0.285,0.086
3/24/2023 12:24:15.190,0.836,0.238,0.117
3/24/2023 12:24:15.200,0.785,0.184,0.113
3/24/2023 12:24:15.210,0.766,0.129,0.102
3/24/2023 12:24:15.220,0.762,0.07,0.078
3/24/2023 12:24:15.230,0.766,0.035,0.043
3/24/2023 12:24:15.240,0.785,0.031,0.004
3/24/2023 12:24:15.250,0.816,0.063,-0.027
3/24/2023 12:24:15.260,0.852,0.113,-0.051
3/24/2023 12:24:15.270,0.891,0.16,-0.047
3/24/2023 12:24:15.280,0.941,0.215,-0.051
3/24/2023 12:24:15.290,0.996,0.266,-0.047
3/24/2023 12:24:15.300,1.051,0.313,-0.055
3/24/2023 12:24:15.310,1.109,0.359,-0.07
3/24/2023 12:24:15.320,1.16,0.398,-0.094
3/24/2023 12:24:15.330,1.207,0.457,-0.117
3/24/2023 12:24:15.340,1.254,0.523,-0.125
3/24/2023 12:24:15.350,1.301,0.617,-0.117
3/24/2023 12:24:15.360,1.348,0.727,-0.113
3/24/2023 12:24:15.370,1.379,0.836,-0.109
3/24/2023 12:24:15.380,1.402,0.934,-0.129
3/24/2023 12:24:15.390,1.434,1.016,-0.145
3/24/2023 12:24:15.400,1.48,1.07,-0.152
3/24/2023 12:24:15.410,1.52,1.078,-0.164
3/24/2023 12:24:15.420,1.535,1.027,-0.164
3/24/2023 12:24:15.430,1.516,0.91,-0.145
3/24/2023 12:24:15.440,1.457,0.762,-0.094
3/24/2023 12:24:15.450,1.367,0.586,-0.023
3/24/2023 12:24:15.460,1.293,0.418,0.035
3/24/2023 12:24:15.470,1.277,0.313,0.09
3/24/2023 12:24:15.480,1.305,0.258,0.133
3/24/2023 12:24:15.490,1.316,0.25,0.148
3/24/2023 12:24:15.500,1.242,0.293,0.137
3/24/2023 12:24:15.510,1.148,0.367,0.105
3/24/2023 12:24:15.520,1.031,0.461,0.055
3/24/2023 12:24:15.530,0.934,0.559,-0.012
3/24/2023 12:24:15.540,0.871,0.652,-0.094
3/24/2023 12:24:15.550,0.875,0.738,-0.176
3/24/2023 12:24:15.560,0.934,0.813,-0.238
3/24/2023 12:24:15.570,1.031,0.859,-0.281
3/24/2023 12:24:15.580,1.145,0.859,-0.313
3/24/2023 12:24:15.590,1.277,0.813,-0.324
3/24/2023 12:24:15.600,1.418,0.742,-0.324
3/24/2023 12:24:15.610,1.512,0.656,-0.316
3/24/2023 12:24:15.620,1.539,0.566,-0.285
3/24/2023 12:24:15.630,1.496,0.48,-0.242
3/24/2023 12:24:15.640,1.414,0.391,-0.188
3/24/2023 12:24:15.650,1.328,0.316,-0.141
3/24/2023 12:24:15.660,1.242,0.25,-0.102
3/24/2023 12:24:15.670,1.16,0.207,-0.078
3/24/2023 12:24:15.680,1.094,0.168,-0.066
3/24/2023 12:24:15.690,1.035,0.16,-0.059
3/24/2023 12:24:15.700,0.992,0.18,-0.059
3/24/2023 12:24:15.710,0.957,0.207,-0.047
3/24/2023 12:24:15.720,0.941,0.215,-0.047
3/24/2023 12:24:15.730,0.934,0.223,-0.055
3/24/2023 12:24:15.740,0.934,0.234,-0.07
3/24/2023 12:24:15.750,0.949,0.23,-0.102
3/24/2023 12:24:15.760,0.977,0.23,-0.129
3/24/2023 12:24:15.770,1.012,0.234,-0.141
3/24/2023 12:24:15.780,1.047,0.246,-0.145
3/24/2023 12:24:15.790,1.094,0.262,-0.156
3/24/2023 12:24:15.800,1.133,0.254,-0.16
3/24/2023 12:24:15.810,1.145,0.238,-0.156
3/24/2023 12:24:15.820,1.137,0.227,-0.152
3/24/2023 12:24:15.830,1.121,0.215,-0.141
3/24/2023 12:24:15.840,1.109,0.207,-0.137
3/24/2023 12:24:15.850,1.113,0.199,-0.137
3/24/2023 12:24:15.860,1.117,0.176,-0.129
3/24/2023 12:24:15.870,1.113,0.152,-0.121
3/24/2023 12:24:15.880,1.105,0.137,-0.105
3/24/2023 12:24:15.890,1.082,0.129,-0.102
3/24/2023 12:24:15.900,1.047,0.102,-0.094
3/24/2023 12:24:15.910,0.988,0.07,-0.082
3/24/2023 12:24:15.920,0.926,0.055,-0.063
3/24/2023 12:24:15.930,0.871,0.047,-0.043
3/24/2023 12:24:15.940,0.867,0.035,-0.039
3/24/2023 12:24:15.950,0.93,0.035,-0.059
3/24/2023 12:24:15.960,1.004,0.035,-0.086
3/24/2023 12:24:15.970,1.039,0.043,-0.109
3/24/2023 12:24:15.980,1.027,0.086,-0.113
3/24/2023 12:24:15.990,0.98,0.141,-0.082
3/24/2023 12:24:16.000,0.91,0.199,-0.047
3/24/2023 12:24:16.010,0.875,0.242,-0.023
3/24/2023 12:24:16.020,0.871,0.266,-0.023
3/24/2023 12:24:16.030,0.914,0.273,-0.027
3/24/2023 12:24:16.040,0.988,0.254,-0.047
3/24/2023 12:24:16.050,1.074,0.238,-0.063
3/24/2023 12:24:16.060,1.172,0.23,-0.082
3/24/2023 12:24:16.070,1.258,0.223,-0.086
3/24/2023 12:24:16.080,1.32,0.227,-0.082
3/24/2023 12:24:16.090,1.336,0.246,-0.07
3/24/2023 12:24:16.100,1.301,0.258,-0.047
3/24/2023 12:24:16.110,1.234,0.27,-0.012
3/24/2023 12:24:16.120,1.164,0.277,0.023
3/24/2023 12:24:16.130,1.098,0.289,0.082
3/24/2023 12:24:16.140,1.035,0.27,0.125
3/24/2023 12:24:16.150,0.977,0.238,0.137
3/24/2023 12:24:16.160,0.938,0.195,0.121
3/24/2023 12:24:16.170,0.918,0.141,0.082
3/24/2023 12:24:16.180,0.91,0.105,0.035
3/24/2023 12:24:16.190,0.914,0.102,-0.016
3/24/2023 12:24:16.200,0.922,0.125,-0.051
3/24/2023 12:24:16.210,0.938,0.176,-0.074
3/24/2023 12:24:16.220,0.973,0.234,-0.082
3/24/2023 12:24:16.230,1.008,0.289,-0.086
3/24/2023 12:24:16.240,1.047,0.344,-0.09
3/24/2023 12:24:16.250,1.086,0.391,-0.105
3/24/2023 12:24:16.260,1.117,0.43,-0.129
3/24/2023 12:24:16.270,1.141,0.469,-0.152
3/24/2023 12:24:16.280,1.16,0.512,-0.176
3/24/2023 12:24:16.290,1.199,0.57,-0.184
3/24/2023 12:24:16.300,1.242,0.641,-0.184
3/24/2023 12:24:16.310,1.273,0.715,-0.191
3/24/2023 12:24:16.320,1.289,0.773,-0.203
3/24/2023 12:24:16.330,1.297,0.816,-0.223
3/24/2023 12:24:16.340,1.324,0.852,-0.242
3/24/2023 12:24:16.350,1.371,0.879,-0.25
3/24/2023 12:24:16.360,1.43,0.887,-0.25
3/24/2023 12:24:16.370,1.469,0.883,-0.242
3/24/2023 12:24:16.380,1.473,0.848,-0.23
3/24/2023 12:24:16.390,1.434,0.773,-0.199
3/24/2023 12:24:16.400,1.363,0.664,-0.148
3/24/2023 12:24:16.410,1.293,0.531,-0.109
3/24/2023 12:24:16.420,1.27,0.434,-0.063
3/24/2023 12:24:16.430,1.297,0.398,-0.02
3/24/2023 12:24:16.440,1.309,0.406,0.008
3/24/2023 12:24:16.450,1.238,0.453,0.023
3/24/2023 12:24:16.460,1.121,0.508,0.023
3/24/2023 12:24:16.470,0.996,0.57,0.004
3/24/2023 12:24:16.480,0.895,0.645,-0.047
3/24/2023 12:24:16.490,0.82,0.707,-0.105
3/24/2023 12:24:16.500,0.781,0.758,-0.172
3/24/2023 12:24:16.510,0.809,0.801,-0.211
3/24/2023 12:24:16.520,0.871,0.816,-0.258
3/24/2023 12:24:16.530,0.969,0.82,-0.285
3/24/2023 12:24:16.540,1.094,0.797,-0.309
3/24/2023 12:24:16.550,1.246,0.75,-0.316
3/24/2023 12:24:16.560,1.383,0.695,-0.316
3/24/2023 12:24:16.570,1.473,0.637,-0.305
3/24/2023 12:24:16.580,1.496,0.57,-0.27
3/24/2023 12:24:16.590,1.457,0.48,-0.219
3/24/2023 12:24:16.600,1.383,0.395,-0.164
3/24/2023 12:24:16.610,1.293,0.313,-0.113
3/24/2023 12:24:16.620,1.215,0.246,-0.07
3/24/2023 12:24:16.630,1.141,0.191,-0.043
3/24/2023 12:24:16.640,1.074,0.152,-0.027
3/24/2023 12:24:16.650,1.027,0.137,-0.031
3/24/2023 12:24:16.660,0.992,0.137,-0.043
3/24/2023 12:24:16.670,0.977,0.16,-0.059
3/24/2023 12:24:16.680,0.969,0.191,-0.074
3/24/2023 12:24:16.690,0.965,0.203,-0.094
3/24/2023 12:24:16.700,0.977,0.219,-0.109
3/24/2023 12:24:16.710,1.004,0.238,-0.117
3/24/2023 12:24:16.720,1.055,0.258,-0.117
3/24/2023 12:24:16.730,1.105,0.273,-0.113
3/24/2023 12:24:16.740,1.16,0.277,-0.125
3/24/2023 12:24:16.750,1.199,0.27,-0.141
3/24/2023 12:24:16.760,1.238,0.254,-0.16
3/24/2023 12:24:16.770,1.262,0.234,-0.172
3/24/2023 12:24:16.780,1.266,0.223,-0.18
3/24/2023 12:24:16.790,1.254,0.211,-0.18
3/24/2023 12:24:16.800,1.234,0.211,-0.176
3/24/2023 12:24:16.810,1.219,0.211,-0.168
3/24/2023 12:24:16.820,1.211,0.211,-0.152
3/24/2023 12:24:16.830,1.234,0.211,-0.137
3/24/2023 12:24:16.840,1.27,0.211,-0.125
3/24/2023 12:24:16.850,1.289,0.203,-0.125
3/24/2023 12:24:16.860,1.262,0.176,-0.121
3/24/2023 12:24:16.870,1.199,0.145,-0.109
3/24/2023 12:24:16.880,1.113,0.113,-0.09
3/24/2023 12:24:16.890,1.027,0.082,-0.066
3/24/2023 12:24:16.900,0.969,0.055,-0.047
3/24/2023 12:24:16.910,0.977,0.039,-0.043
3/24/2023 12:24:16.920,1.016,0.023,-0.043
3/24/2023 12:24:16.930,1.035,0.02,-0.055
3/24/2023 12:24:16.940,1.008,0.027,-0.07
3/24/2023 12:24:16.950,0.957,0.051,-0.074
3/24/2023 12:24:16.960,0.891,0.086,-0.066
3/24/2023 12:24:16.970,0.813,0.113,-0.051
3/24/2023 12:24:16.980,0.762,0.152,-0.043
3/24/2023 12:24:16.990,0.754,0.18,-0.051
3/24/2023 12:24:17.000,0.781,0.219,-0.059
3/24/2023 12:24:17.010,0.848,0.238,-0.07
3/24/2023 12:24:17.020,0.918,0.242,-0.086
3/24/2023 12:24:17.030,1,0.246,-0.09
3/24/2023 12:24:17.040,1.082,0.254,-0.082
3/24/2023 12:24:17.050,1.133,0.266,-0.074
3/24/2023 12:24:17.060,1.133,0.293,-0.059
3/24/2023 12:24:17.070,1.098,0.313,-0.031
3/24/2023 12:24:17.080,1.039,0.328,0.004
3/24/2023 12:24:17.090,0.988,0.355,0.047
3/24/2023 12:24:17.100,0.938,0.355,0.074
3/24/2023 12:24:17.110,0.895,0.32,0.098
3/24/2023 12:24:17.120,0.863,0.277,0.113
3/24/2023 12:24:17.130,0.828,0.215,0.09
3/24/2023 12:24:17.140,0.816,0.148,0.047
3/24/2023 12:24:17.150,0.828,0.102,0
3/24/2023 12:24:17.160,0.848,0.086,-0.047
3/24/2023 12:24:17.170,0.875,0.109,-0.082
3/24/2023 12:24:17.180,0.91,0.16,-0.09
3/24/2023 12:24:17.190,0.953,0.215,-0.09
3/24/2023 12:24:17.200,1.004,0.262,-0.086
3/24/2023 12:24:17.210,1.07,0.297,-0.078
3/24/2023 12:24:17.220,1.129,0.34,-0.09
3/24/2023 12:24:17.230,1.184,0.379,-0.105
3/24/2023 12:24:17.240,1.234,0.41,-0.121
3/24/2023 12:24:17.250,1.285,0.457,-0.121
3/24/2023 12:24:17.260,1.324,0.52,-0.113
3/24/2023 12:24:17.270,1.348,0.586,-0.117
3/24/2023 12:24:17.280,1.371,0.652,-0.133
3/24/2023 12:24:17.290,1.398,0.711,-0.156
3/24/2023 12:24:17.300,1.445,0.758,-0.188
3/24/2023 12:24:17.310,1.508,0.809,-0.211
3/24/2023 12:24:17.320,1.555,0.863,-0.227
3/24/2023 12:24:17.330,1.563,0.902,-0.227
3/24/2023 12:24:17.340,1.527,0.906,-0.223
3/24/2023 12:24:17.350,1.453,0.863,-0.207
3/24/2023 12:24:17.360,1.371,0.77,-0.172
3/24/2023 12:24:17.370,1.324,0.648,-0.145
3/24/2023 12:24:17.380,1.336,0.551,-0.098
3/24/2023 12:24:17.390,1.371,0.504,-0.043
3/24/2023 12:24:17.400,1.352,0.508,0
3/24/2023 12:24:17.410,1.242,0.535,0.023
3/24/2023 12:24:17.420,1.09,0.57,0.023
3/24/2023 12:24:17.430,0.93,0.598,-0.004
3/24/2023 12:24:17.440,0.805,0.629,-0.055
3/24/2023 12:24:17.450,0.734,0.66,-0.121
3/24/2023 12:24:17.460,0.742,0.695,-0.176
3/24/2023 12:24:17.470,0.82,0.738,-0.219
3/24/2023 12:24:17.480,0.941,0.781,-0.262
3/24/2023 12:24:17.490,1.066,0.797,-0.305
3/24/2023 12:24:17.500,1.184,0.793,-0.336
3/24/2023 12:24:17.510,1.316,0.758,-0.34
3/24/2023 12:24:17.520,1.418,0.719,-0.328
3/24/2023 12:24:17.530,1.457,0.68,-0.309
3/24/2023 12:24:17.540,1.43,0.617,-0.266
3/24/2023 12:24:17.550,1.363,0.555,-0.215
3/24/2023 12:24:17.560,1.273,0.488,-0.168
3/24/2023 12:24:17.570,1.195,0.402,-0.125
3/24/2023 12:24:17.580,1.141,0.316,-0.078
3/24/2023 12:24:17.590,1.098,0.238,-0.047
3/24/2023 12:24:17.600,1.051,0.188,-0.023
3/24/2023 12:24:17.610,1.008,0.148,-0.016
3/24/2023 12:24:17.620,0.98,0.141,-0.012
3/24/2023 12:24:17.630,0.953,0.148,-0.027
3/24/2023 12:24:17.640,0.941,0.168,-0.047
3/24/2023 12:24:17.650,0.945,0.195,-0.07
3/24/2023 12:24:17.660,0.953,0.215,-0.098
3/24/2023 12:24:17.670,0.965,0.23,-0.121
3/24/2023 12:24:17.680,0.984,0.242,-0.145
3/24/2023 12:24:17.690,1.008,0.266,-0.164
3/24/2023 12:24:17.700,1.043,0.281,-0.176
3/24/2023 12:24:17.710,1.098,0.297,-0.184
3/24/2023 12:24:17.720,1.195,0.32,-0.18
3/24/2023 12:24:17.730,1.316,0.348,-0.18
3/24/2023 12:24:17.740,1.406,0.344,-0.18
3/24/2023 12:24:17.750,1.434,0.316,-0.18
3/24/2023 12:24:17.760,1.395,0.273,-0.188
3/24/2023 12:24:17.770,1.363,0.219,-0.195
3/24/2023 12:24:17.780,1.359,0.188,-0.199
3/24/2023 12:24:17.790,1.375,0.168,-0.207
3/24/2023 12:24:17.800,1.371,0.152,-0.203
3/24/2023 12:24:17.810,1.328,0.148,-0.191
3/24/2023 12:24:17.820,1.254,0.137,-0.164
3/24/2023 12:24:17.830,1.164,0.105,-0.121
3/24/2023 12:24:17.840,1.059,0.082,-0.074
3/24/2023 12:24:17.850,0.973,0.055,-0.051
3/24/2023 12:24:17.860,0.945,0.02,-0.043
3/24/2023 12:24:17.870,0.965,-0.02,-0.063
3/24/2023 12:24:17.880,0.984,-0.047,-0.09
3/24/2023 12:24:17.890,0.965,-0.063,-0.102
3/24/2023 12:24:17.900,0.91,-0.047,-0.109
3/24/2023 12:24:17.910,0.848,-0.004,-0.105
3/24/2023 12:24:17.920,0.801,0.051,-0.09
3/24/2023 12:24:17.930,0.766,0.098,-0.074
3/24/2023 12:24:17.940,0.754,0.156,-0.055
3/24/2023 12:24:17.950,0.766,0.203,-0.059
3/24/2023 12:24:17.960,0.809,0.227,-0.066
3/24/2023 12:24:17.970,0.879,0.25,-0.078
3/24/2023 12:24:17.980,0.969,0.262,-0.098
3/24/2023 12:24:17.990,1.07,0.262,-0.098
3/24/2023 12:24:18.000,1.141,0.285,-0.086
3/24/2023 12:24:18.010,1.168,0.309,-0.066
3/24/2023 12:24:18.020,1.148,0.332,-0.043
3/24/2023 12:24:18.030,1.098,0.34,-0.02
3/24/2023 12:24:18.040,1.047,0.332,0
3/24/2023 12:24:18.050,0.984,0.305,0.02
3/24/2023 12:24:18.060,0.938,0.266,0.039
3/24/2023 12:24:18.070,0.891,0.227,0.051
3/24/2023 12:24:18.080,0.855,0.188,0.055
3/24/2023 12:24:18.090,0.84,0.16,0.07
3/24/2023 12:24:18.100,0.855,0.148,0.09
3/24/2023 12:24:18.110,0.867,0.152,0.109
3/24/2023 12:24:18.120,0.887,0.172,0.109
3/24/2023 12:24:18.130,0.91,0.195,0.082
3/24/2023 12:24:18.140,0.941,0.207,0.043
3/24/2023 12:24:18.150,0.988,0.207,-0.008
3/24/2023 12:24:18.160,1.035,0.215,-0.043
3/24/2023 12:24:18.170,1.082,0.234,-0.059
3/24/2023 12:24:18.180,1.125,0.273,-0.063
3/24/2023 12:24:18.190,1.141,0.34,-0.055
3/24/2023 12:24:18.200,1.156,0.418,-0.047
3/24/2023 12:24:18.210,1.184,0.496,-0.047
3/24/2023 12:24:18.220,1.219,0.566,-0.059
3/24/2023 12:24:18.230,1.254,0.629,-0.074
3/24/2023 12:24:18.240,1.277,0.684,-0.082
3/24/2023 12:24:18.250,1.297,0.742,-0.086
3/24/2023 12:24:18.260,1.324,0.805,-0.086
3/24/2023 12:24:18.270,1.359,0.84,-0.082
3/24/2023 12:24:18.280,1.406,0.852,-0.09
3/24/2023 12:24:18.290,1.449,0.82,-0.086
3/24/2023 12:24:18.300,1.477,0.77,-0.074
3/24/2023 12:24:18.310,1.457,0.703,-0.043
3/24/2023 12:24:18.320,1.398,0.625,-0.012
3/24/2023 12:24:18.330,1.32,0.535,-0.004
3/24/2023 12:24:18.340,1.305,0.477,-0.012
3/24/2023 12:24:18.350,1.379,0.465,0
3/24/2023 12:24:18.360,1.465,0.496,0.016
3/24/2023 12:24:18.370,1.461,0.559,0.027
3/24/2023 12:24:18.380,1.348,0.609,0.023
3/24/2023 12:24:18.390,1.18,0.629,-0.008
3/24/2023 12:24:18.400,1.02,0.633,-0.07
3/24/2023 12:24:18.410,0.898,0.633,-0.145
3/24/2023 12:24:18.420,0.852,0.641,-0.207
3/24/2023 12:24:18.430,0.906,0.656,-0.234
3/24/2023 12:24:18.440,1.039,0.684,-0.227
3/24/2023 12:24:18.450,1.176,0.699,-0.227
3/24/2023 12:24:18.460,1.281,0.691,-0.227
3/24/2023 12:24:18.470,1.359,0.652,-0.223
3/24/2023 12:24:18.480,1.438,0.586,-0.219
3/24/2023 12:24:18.490,1.496,0.52,-0.199
3/24/2023 12:24:18.500,1.496,0.461,-0.168
3/24/2023 12:24:18.510,1.441,0.414,-0.121
3/24/2023 12:24:18.520,1.332,0.367,-0.074
3/24/2023 12:24:18.530,1.23,0.348,-0.02
3/24/2023 12:24:18.540,1.059,0.594,-0.223
3/24/2023 12:24:18.550,1.035,1.008,-0.305
3/24/2023 12:24:18.560,1.145,0.074,-0.156
3/24/2023 12:24:18.570,1.109,-0.895,0.238
3/24/2023 12:24:18.580,0.852,-0.844,0.328
3/24/2023 12:24:18.590,0.719,-0.184,0.047
3/24/2023 12:24:18.600,0.695,0.457,-0.109
3/24/2023 12:24:18.610,0.715,0.727,-0.133
3/24/2023 12:24:18.620,0.793,0.559,-0.137
3/24/2023 12:24:18.630,0.895,0.27,-0.09
3/24/2023 12:24:18.640,0.953,0.082,-0.055
3/24/2023 12:24:18.650,0.953,0.023,-0.051
3/24/2023 12:24:18.660,0.914,0.074,-0.086
3/24/2023 12:24:18.670,0.855,0.199,-0.137
3/24/2023 12:24:18.680,0.832,0.313,-0.168
3/24/2023 12:24:18.690,0.867,0.32,-0.172
3/24/2023 12:24:18.700,0.922,0.254,-0.168
3/24/2023 12:24:18.710,0.965,0.219,-0.156
3/24/2023 12:24:18.720,0.984,0.223,-0.152
3/24/2023 12:24:18.730,1.012,0.223,-0.148
3/24/2023 12:24:18.740,1.031,0.227,-0.148
3/24/2023 12:24:18.750,1.07,0.242,-0.152
3/24/2023 12:24:18.760,1.129,0.23,-0.156
3/24/2023 12:24:18.770,1.188,0.211,-0.16
3/24/2023 12:24:18.780,1.23,0.203,-0.152
3/24/2023 12:24:18.790,1.23,0.211,-0.137
3/24/2023 12:24:18.800,1.188,0.215,-0.113
3/24/2023 12:24:18.810,1.133,0.215,-0.09
3/24/2023 12:24:18.820,1.074,0.203,-0.07
3/24/2023 12:24:18.830,1.051,0.195,-0.063
3/24/2023 12:24:18.840,1.07,0.18,-0.07
3/24/2023 12:24:18.850,1.105,0.152,-0.078
3/24/2023 12:24:18.860,1.109,0.125,-0.074
3/24/2023 12:24:18.870,1.078,0.121,-0.07
3/24/2023 12:24:18.880,1.031,0.137,-0.055
3/24/2023 12:24:18.890,0.984,0.152,-0.031
3/24/2023 12:24:18.900,0.93,0.172,-0.02
3/24/2023 12:24:18.910,0.879,0.191,-0.012
3/24/2023 12:24:18.920,0.867,0.199,-0.016
3/24/2023 12:24:18.930,0.898,0.215,-0.027
3/24/2023 12:24:18.940,0.965,0.219,-0.031
3/24/2023 12:24:18.950,1.039,0.211,-0.039
3/24/2023 12:24:18.960,1.113,0.207,-0.039
3/24/2023 12:24:18.970,1.188,0.219,-0.051
3/24/2023 12:24:18.980,1.238,0.242,-0.047
3/24/2023 12:24:18.990,1.254,0.262,-0.043
3/24/2023 12:24:19.000,1.203,0.289,-0.035
3/24/2023 12:24:19.010,1.137,0.309,-0.016
3/24/2023 12:24:19.020,1.074,0.32,0.012
3/24/2023 12:24:19.030,1.004,0.324,0.055
3/24/2023 12:24:19.040,0.945,0.313,0.094
3/24/2023 12:24:19.050,0.895,0.285,0.113
3/24/2023 12:24:19.060,0.859,0.238,0.105
3/24/2023 12:24:19.070,0.836,0.195,0.078
3/24/2023 12:24:19.080,0.828,0.156,0.039
3/24/2023 12:24:19.090,0.832,0.145,-0.008
3/24/2023 12:24:19.100,0.832,0.164,-0.047
3/24/2023 12:24:19.110,0.84,0.199,-0.07
3/24/2023 12:24:19.120,0.852,0.242,-0.074
3/24/2023 12:24:19.130,0.871,0.289,-0.074
3/24/2023 12:24:19.140,0.898,0.328,-0.074
3/24/2023 12:24:19.150,0.934,0.359,-0.078
3/24/2023 12:24:19.160,0.969,0.387,-0.086
3/24/2023 12:24:19.170,1,0.41,-0.094
3/24/2023 12:24:19.180,1.043,0.441,-0.109
3/24/2023 12:24:19.190,1.094,0.484,-0.113
3/24/2023 12:24:19.200,1.148,0.527,-0.117
3/24/2023 12:24:19.210,1.207,0.57,-0.125
3/24/2023 12:24:19.220,1.258,0.617,-0.133
3/24/2023 12:24:19.230,1.309,0.648,-0.156
3/24/2023 12:24:19.240,1.371,0.668,-0.176
3/24/2023 12:24:19.250,1.422,0.691,-0.191
3/24/2023 12:24:19.260,1.469,0.715,-0.191
3/24/2023 12:24:19.270,1.48,0.727,-0.188
3/24/2023 12:24:19.280,1.461,0.738,-0.176
3/24/2023 12:24:19.290,1.414,0.738,-0.16
3/24/2023 12:24:19.300,1.352,0.703,-0.152
3/24/2023 12:24:19.310,1.316,0.656,-0.148
3/24/2023 12:24:19.320,1.34,0.621,-0.129
3/24/2023 12:24:19.330,1.371,0.609,-0.098
3/24/2023 12:24:19.340,1.336,0.602,-0.074
3/24/2023 12:24:19.350,1.234,0.617,-0.063
3/24/2023 12:24:19.360,1.133,0.633,-0.051
3/24/2023 12:24:19.370,1.039,0.648,-0.051
3/24/2023 12:24:19.380,0.953,0.648,-0.082
3/24/2023 12:24:19.390,0.883,0.641,-0.121
3/24/2023 12:24:19.400,0.859,0.629,-0.156
3/24/2023 12:24:19.410,0.898,0.645,-0.18
3/24/2023 12:24:19.420,0.984,0.668,-0.191
3/24/2023 12:24:19.430,1.082,0.688,-0.207
3/24/2023 12:24:19.440,1.172,0.691,-0.23
3/24/2023 12:24:19.450,1.25,0.672,-0.234
3/24/2023 12:24:19.460,1.309,0.637,-0.23
3/24/2023 12:24:19.470,1.32,0.598,-0.203
3/24/2023 12:24:19.480,1.281,0.555,-0.176
3/24/2023 12:24:19.490,1.203,0.516,-0.141
3/24/2023 12:24:19.500,1.105,0.465,-0.109
3/24/2023 12:24:19.510,1.039,0.402,-0.082
3/24/2023 12:24:19.520,0.992,0.336,-0.066
3/24/2023 12:24:19.530,0.961,0.289,-0.051
3/24/2023 12:24:19.540,0.941,0.25,-0.039
3/24/2023 12:24:19.550,0.93,0.227,-0.039
3/24/2023 12:24:19.560,0.922,0.211,-0.039
3/24/2023 12:24:19.570,0.914,0.203,-0.039
3/24/2023 12:24:19.580,0.926,0.199,-0.051
3/24/2023 12:24:19.590,0.941,0.199,-0.066
3/24/2023 12:24:19.600,0.953,0.207,-0.086
3/24/2023 12:24:19.610,0.969,0.215,-0.102
3/24/2023 12:24:19.620,0.984,0.23,-0.117
3/24/2023 12:24:19.630,1.004,0.234,-0.129
3/24/2023 12:24:19.640,1.027,0.25,-0.129
3/24/2023 12:24:19.650,1.059,0.254,-0.141
3/24/2023 12:24:19.660,1.09,0.262,-0.141
3/24/2023 12:24:19.670,1.141,0.262,-0.137
3/24/2023 12:24:19.680,1.199,0.254,-0.137
3/24/2023 12:24:19.690,1.25,0.242,-0.145
3/24/2023 12:24:19.700,1.285,0.234,-0.156
3/24/2023 12:24:19.710,1.305,0.219,-0.168
3/24/2023 12:24:19.720,1.32,0.207,-0.172
3/24/2023 12:24:19.730,1.352,0.188,-0.172
3/24/2023 12:24:19.740,1.391,0.168,-0.168
3/24/2023 12:24:19.750,1.379,0.145,-0.16
3/24/2023 12:24:19.760,1.316,0.094,-0.148
3/24/2023 12:24:19.770,1.227,0.031,-0.129
3/24/2023 12:24:19.780,1.133,-0.027,-0.102
3/24/2023 12:24:19.790,1.055,-0.078,-0.086
3/24/2023 12:24:19.800,1.02,-0.125,-0.078
3/24/2023 12:24:19.810,1.047,-0.145,-0.094
3/24/2023 12:24:19.820,1.105,-0.129,-0.105
3/24/2023 12:24:19.830,1.129,-0.094,-0.109
3/24/2023 12:24:19.840,1.102,-0.035,-0.113
3/24/2023 12:24:19.850,1.027,0.027,-0.098
3/24/2023 12:24:19.860,0.949,0.078,-0.082
3/24/2023 12:24:19.870,0.887,0.113,-0.082
3/24/2023 12:24:19.880,0.867,0.141,-0.098
3/24/2023 12:24:19.890,0.922,0.168,-0.117
3/24/2023 12:24:19.900,1.027,0.195,-0.125
3/24/2023 12:24:19.910,1.125,0.223,-0.129
3/24/2023 12:24:19.920,1.191,0.242,-0.113
3/24/2023 12:24:19.930,1.238,0.27,-0.094
3/24/2023 12:24:19.940,1.254,0.297,-0.07
3/24/2023 12:24:19.950,1.25,0.324,-0.047
3/24/2023 12:24:19.960,1.211,0.336,-0.02
3/24/2023 12:24:19.970,1.137,0.328,0.004
3/24/2023 12:24:19.980,1.055,0.293,0.035
3/24/2023 12:24:19.990,0.973,0.254,0.07
3/24/2023 12:24:20.000,0.883,0.195,0.109
3/24/2023 12:24:20.010,0.824,0.141,0.141
3/24/2023 12:24:20.020,0.777,0.094,0.152
3/24/2023 12:24:20.030,0.75,0.051,0.152
3/24/2023 12:24:20.040,0.734,0.027,0.133
3/24/2023 12:24:20.050,0.734,0.023,0.098
3/24/2023 12:24:20.060,0.742,0.055,0.047
3/24/2023 12:24:20.070,0.758,0.094,0
3/24/2023 12:24:20.080,0.785,0.133,-0.035
3/24/2023 12:24:20.090,0.824,0.176,-0.066
3/24/2023 12:24:20.100,0.867,0.223,-0.098
3/24/2023 12:24:20.110,0.926,0.27,-0.125
3/24/2023 12:24:20.120,0.988,0.324,-0.137
3/24/2023 12:24:20.130,1.051,0.383,-0.141
3/24/2023 12:24:20.140,1.109,0.449,-0.145
3/24/2023 12:24:20.150,1.172,0.512,-0.156
3/24/2023 12:24:20.160,1.219,0.578,-0.164
3/24/2023 12:24:20.170,1.258,0.641,-0.172
3/24/2023 12:24:20.180,1.285,0.695,-0.188
3/24/2023 12:24:20.190,1.301,0.742,-0.203
3/24/2023 12:24:20.200,1.336,0.797,-0.211
3/24/2023 12:24:20.210,1.387,0.855,-0.207
3/24/2023 12:24:20.220,1.438,0.918,-0.203
3/24/2023 12:24:20.230,1.473,0.969,-0.199
3/24/2023 12:24:20.240,1.469,0.988,-0.18
3/24/2023 12:24:20.250,1.402,0.926,-0.152
3/24/2023 12:24:20.260,1.305,0.797,-0.117
3/24/2023 12:24:20.270,1.195,0.617,-0.094
3/24/2023 12:24:20.280,1.152,0.438,-0.066
3/24/2023 12:24:20.290,1.219,0.332,-0.008
3/24/2023 12:24:20.300,1.32,0.305,0.051
3/24/2023 12:24:20.310,1.34,0.328,0.066
3/24/2023 12:24:20.320,1.277,0.363,0.066
3/24/2023 12:24:20.330,1.172,0.418,0.051
3/24/2023 12:24:20.340,1.063,0.477,0.031
3/24/2023 12:24:20.350,0.969,0.535,-0.02
3/24/2023 12:24:20.360,0.91,0.586,-0.086
3/24/2023 12:24:20.370,0.906,0.641,-0.145
3/24/2023 12:24:20.380,0.953,0.703,-0.191
3/24/2023 12:24:20.390,1.027,0.754,-0.227
3/24/2023 12:24:20.400,1.102,0.777,-0.254
3/24/2023 12:24:20.410,1.184,0.773,-0.273
3/24/2023 12:24:20.420,1.266,0.734,-0.27
3/24/2023 12:24:20.430,1.324,0.664,-0.25
3/24/2023 12:24:20.440,1.344,0.594,-0.219
3/24/2023 12:24:20.450,1.32,0.523,-0.18
3/24/2023 12:24:20.460,1.258,0.457,-0.137
3/24/2023 12:24:20.470,1.184,0.383,-0.094
3/24/2023 12:24:20.480,1.117,0.309,-0.051
3/24/2023 12:24:20.490,1.07,0.242,-0.016
3/24/2023 12:24:20.500,1.023,0.191,0.004
3/24/2023 12:24:20.510,1,0.16,0.016
3/24/2023 12:24:20.520,0.992,0.145,0.012
3/24/2023 12:24:20.530,0.977,0.148,0
3/24/2023 12:24:20.540,0.973,0.156,-0.02
3/24/2023 12:24:20.550,0.973,0.18,-0.043
3/24/2023 12:24:20.560,0.969,0.207,-0.07
3/24/2023 12:24:20.570,0.977,0.227,-0.094
3/24/2023 12:24:20.580,1,0.246,-0.113
3/24/2023 12:24:20.590,1.023,0.262,-0.133
3/24/2023 12:24:20.600,1.039,0.281,-0.141
3/24/2023 12:24:20.610,1.063,0.297,-0.141
3/24/2023 12:24:20.620,1.086,0.301,-0.145
3/24/2023 12:24:20.630,1.121,0.305,-0.141
3/24/2023 12:24:20.640,1.152,0.293,-0.137
3/24/2023 12:24:20.650,1.168,0.262,-0.137
3/24/2023 12:24:20.660,1.164,0.227,-0.152
3/24/2023 12:24:20.670,1.164,0.203,-0.168
3/24/2023 12:24:20.680,1.16,0.18,-0.176
3/24/2023 12:24:20.690,1.164,0.156,-0.18
3/24/2023 12:24:20.700,1.184,0.16,-0.176
3/24/2023 12:24:20.710,1.195,0.18,-0.16
3/24/2023 12:24:20.720,1.176,0.195,-0.137
3/24/2023 12:24:20.730,1.125,0.191,-0.113
3/24/2023 12:24:20.740,1.066,0.176,-0.086
3/24/2023 12:24:20.750,0.996,0.152,-0.055
3/24/2023 12:24:20.760,0.949,0.125,-0.043
3/24/2023 12:24:20.770,0.953,0.074,-0.047
3/24/2023 12:24:20.780,1.047,0.039,-0.063
3/24/2023 12:24:20.790,1.156,0.016,-0.082
3/24/2023 12:24:20.800,1.195,-0.004,-0.094
3/24/2023 12:24:20.810,1.145,-0.012,-0.086
3/24/2023 12:24:20.820,1.082,0,-0.074
3/24/2023 12:24:20.830,1.016,0.02,-0.051
3/24/2023 12:24:20.840,0.953,0.035,-0.039
3/24/2023 12:24:20.850,0.934,0.055,-0.035
3/24/2023 12:24:20.860,0.965,0.086,-0.031
3/24/2023 12:24:20.870,1.027,0.121,-0.027
3/24/2023 12:24:20.880,1.09,0.156,-0.031
3/24/2023 12:24:20.890,1.145,0.191,-0.027
3/24/2023 12:24:20.900,1.203,0.223,-0.016
3/24/2023 12:24:20.910,1.234,0.258,-0.012
3/24/2023 12:24:20.920,1.219,0.281,0
3/24/2023 12:24:20.930,1.168,0.301,0.008
3/24/2023 12:24:20.940,1.098,0.305,0.016
3/24/2023 12:24:20.950,1.023,0.293,0.027
3/24/2023 12:24:20.960,0.957,0.273,0.059
3/24/2023 12:24:20.970,0.891,0.238,0.105
3/24/2023 12:24:20.980,0.84,0.211,0.141
3/24/2023 12:24:20.990,0.805,0.168,0.141
3/24/2023 12:24:21.000,0.777,0.113,0.113
3/24/2023 12:24:21.010,0.793,0.051,0.082
3/24/2023 12:24:21.020,0.809,0.016,0.035
3/24/2023 12:24:21.030,0.816,0.016,-0.012
3/24/2023 12:24:21.040,0.82,0.055,-0.051
3/24/2023 12:24:21.050,0.828,0.105,-0.09
3/24/2023 12:24:21.060,0.844,0.152,-0.117
3/24/2023 12:24:21.070,0.887,0.191,-0.129
3/24/2023 12:24:21.080,0.945,0.238,-0.133
3/24/2023 12:24:21.090,1.012,0.293,-0.129
3/24/2023 12:24:21.100,1.063,0.359,-0.121
3/24/2023 12:24:21.110,1.102,0.43,-0.121
3/24/2023 12:24:21.120,1.137,0.504,-0.117
3/24/2023 12:24:21.130,1.16,0.559,-0.113
3/24/2023 12:24:21.140,1.188,0.617,-0.125
3/24/2023 12:24:21.150,1.207,0.66,-0.145
3/24/2023 12:24:21.160,1.242,0.695,-0.172
3/24/2023 12:24:21.170,1.297,0.738,-0.195
3/24/2023 12:24:21.180,1.367,0.777,-0.219
3/24/2023 12:24:21.190,1.438,0.816,-0.23
3/24/2023 12:24:21.200,1.484,0.863,-0.23
3/24/2023 12:24:21.210,1.488,0.898,-0.219
3/24/2023 12:24:21.220,1.43,0.879,-0.195
3/24/2023 12:24:21.230,1.355,0.789,-0.16
3/24/2023 12:24:21.240,1.285,0.641,-0.133
3/24/2023 12:24:21.250,1.266,0.488,-0.086
3/24/2023 12:24:21.260,1.297,0.363,-0.023
3/24/2023 12:24:21.270,1.324,0.32,0.02
3/24/2023 12:24:21.280,1.297,0.324,0.031
3/24/2023 12:24:21.290,1.227,0.363,0.031
3/24/2023 12:24:21.300,1.152,0.43,0.02
3/24/2023 12:24:21.310,1.07,0.496,-0.02
3/24/2023 12:24:21.320,1,0.563,-0.07
3/24/2023 12:24:21.330,0.961,0.633,-0.125
3/24/2023 12:24:21.340,0.961,0.699,-0.172
3/24/2023 12:24:21.350,1.004,0.766,-0.211
3/24/2023 12:24:21.360,1.059,0.809,-0.246
3/24/2023 12:24:21.370,1.113,0.824,-0.27
3/24/2023 12:24:21.380,1.168,0.801,-0.277
3/24/2023 12:24:21.390,1.215,0.754,-0.266
3/24/2023 12:24:21.400,1.234,0.688,-0.238
3/24/2023 12:24:21.410,1.234,0.629,-0.199
3/24/2023 12:24:21.420,1.195,0.563,-0.156
3/24/2023 12:24:21.430,1.129,0.504,-0.109
3/24/2023 12:24:21.440,1.063,0.426,-0.066
3/24/2023 12:24:21.450,0.996,0.344,-0.031
3/24/2023 12:24:21.460,0.949,0.273,-0.012
3/24/2023 12:24:21.470,0.918,0.211,0
3/24/2023 12:24:21.480,0.902,0.176,0.004
3/24/2023 12:24:21.490,0.898,0.152,0
3/24/2023 12:24:21.500,0.883,0.148,-0.012
3/24/2023 12:24:21.510,0.895,0.148,-0.023
3/24/2023 12:24:21.520,0.918,0.164,-0.051
3/24/2023 12:24:21.530,0.938,0.184,-0.066
3/24/2023 12:24:21.540,0.965,0.207,-0.082
3/24/2023 12:24:21.550,1,0.223,-0.098
3/24/2023 12:24:21.560,1.027,0.242,-0.105
3/24/2023 12:24:21.570,1.07,0.258,-0.117
3/24/2023 12:24:21.580,1.125,0.273,-0.125
3/24/2023 12:24:21.590,1.188,0.285,-0.137
3/24/2023 12:24:21.600,1.25,0.297,-0.133
3/24/2023 12:24:21.610,1.305,0.301,-0.141
3/24/2023 12:24:21.620,1.328,0.285,-0.145
3/24/2023 12:24:21.630,1.324,0.273,-0.148
3/24/2023 12:24:21.640,1.301,0.246,-0.152
3/24/2023 12:24:21.650,1.297,0.215,-0.16
3/24/2023 12:24:21.660,1.309,0.18,-0.172
3/24/2023 12:24:21.670,1.332,0.145,-0.168
3/24/2023 12:24:21.680,1.34,0.094,-0.168
3/24/2023 12:24:21.690,1.309,0.043,-0.176
3/24/2023 12:24:21.700,1.242,-0.027,-0.18
3/24/2023 12:24:21.710,1.16,-0.09,-0.168
3/24/2023 12:24:21.720,1.059,-0.141,-0.125
3/24/2023 12:24:21.730,0.977,-0.164,-0.078
3/24/2023 12:24:21.740,0.957,-0.16,-0.055
3/24/2023 12:24:21.750,0.992,-0.121,-0.051
3/24/2023 12:24:21.760,1.043,-0.078,-0.074
3/24/2023 12:24:21.770,1.059,-0.035,-0.098
3/24/2023 12:24:21.780,1.023,0.012,-0.113
3/24/2023 12:24:21.790,0.961,0.055,-0.113
3/24/2023 12:24:21.800,0.898,0.082,-0.094
3/24/2023 12:24:21.810,0.844,0.113,-0.09
3/24/2023 12:24:21.820,0.832,0.145,-0.098
3/24/2023 12:24:21.830,0.883,0.176,-0.098
3/24/2023 12:24:21.840,0.969,0.195,-0.094
3/24/2023 12:24:21.850,1.055,0.211,-0.086
3/24/2023 12:24:21.860,1.129,0.234,-0.078
3/24/2023 12:24:21.870,1.195,0.262,-0.07
3/24/2023 12:24:21.880,1.25,0.289,-0.066
3/24/2023 12:24:21.890,1.281,0.305,-0.055
3/24/2023 12:24:21.900,1.266,0.309,-0.039
3/24/2023 12:24:21.910,1.215,0.289,-0.016
3/24/2023 12:24:21.920,1.141,0.266,0.012
3/24/2023 12:24:21.930,1.063,0.23,0.051
3/24/2023 12:24:21.940,0.984,0.188,0.105
3/24/2023 12:24:21.950,0.918,0.148,0.168
3/24/2023 12:24:21.960,0.863,0.109,0.203
3/24/2023 12:24:21.970,0.824,0.066,0.207
3/24/2023 12:24:21.980,0.797,0.023,0.191
3/24/2023 12:24:21.990,0.805,0,0.141
3/24/2023 12:24:22.000,0.809,0,0.082
3/24/2023 12:24:22.010,0.832,0.027,0.02
3/24/2023 12:24:22.020,0.855,0.07,-0.023
3/24/2023 12:24:22.030,0.879,0.121,-0.055
3/24/2023 12:24:22.040,0.918,0.172,-0.074
3/24/2023 12:24:22.050,0.953,0.238,-0.082
3/24/2023 12:24:22.060,0.996,0.305,-0.094
3/24/2023 12:24:22.070,1.051,0.371,-0.105
3/24/2023 12:24:22.080,1.102,0.438,-0.105
3/24/2023 12:24:22.090,1.148,0.504,-0.109
3/24/2023 12:24:22.100,1.18,0.578,-0.102
3/24/2023 12:24:22.110,1.188,0.645,-0.105
3/24/2023 12:24:22.120,1.18,0.703,-0.109
3/24/2023 12:24:22.130,1.191,0.742,-0.125
3/24/2023 12:24:22.140,1.238,0.785,-0.145
3/24/2023 12:24:22.150,1.313,0.828,-0.148
3/24/2023 12:24:22.160,1.395,0.871,-0.148
3/24/2023 12:24:22.170,1.465,0.926,-0.133
3/24/2023 12:24:22.180,1.48,0.969,-0.117
3/24/2023 12:24:22.190,1.438,0.965,-0.09
3/24/2023 12:24:22.200,1.34,0.895,-0.055
3/24/2023 12:24:22.210,1.227,0.738,-0.047
3/24/2023 12:24:22.220,1.184,0.555,-0.027
3/24/2023 12:24:22.230,1.234,0.41,0.02
3/24/2023 12:24:22.240,1.301,0.328,0.07
3/24/2023 12:24:22.250,1.328,0.313,0.094
3/24/2023 12:24:22.260,1.273,0.328,0.09
3/24/2023 12:24:22.270,1.172,0.367,0.074
3/24/2023 12:24:22.280,1.063,0.422,0.035
3/24/2023 12:24:22.290,0.965,0.477,-0.016
3/24/2023 12:24:22.300,0.906,0.535,-0.082
3/24/2023 12:24:22.310,0.898,0.598,-0.148
3/24/2023 12:24:22.320,0.938,0.664,-0.199
3/24/2023 12:24:22.330,1,0.727,-0.238
3/24/2023 12:24:22.340,1.07,0.762,-0.277
3/24/2023 12:24:22.350,1.137,0.762,-0.305
3/24/2023 12:24:22.360,1.203,0.73,-0.309
3/24/2023 12:24:22.370,1.27,0.68,-0.289
3/24/2023 12:24:22.380,1.309,0.621,-0.262
3/24/2023 12:24:22.390,1.309,0.563,-0.227
3/24/2023 12:24:22.400,1.266,0.508,-0.188
3/24/2023 12:24:22.410,1.191,0.449,-0.145
3/24/2023 12:24:22.420,1.125,0.383,-0.102
3/24/2023 12:24:22.430,1.07,0.313,-0.063
3/24/2023 12:24:22.440,1.031,0.246,-0.039
3/24/2023 12:24:22.450,1.008,0.191,-0.023
3/24/2023 12:24:22.460,0.992,0.16,-0.012
3/24/2023 12:24:22.470,0.98,0.152,-0.016
3/24/2023 12:24:22.480,0.984,0.16,-0.027
3/24/2023 12:24:22.490,0.996,0.176,-0.043
3/24/2023 12:24:22.500,1.016,0.191,-0.066
3/24/2023 12:24:22.510,1.059,0.207,-0.086
3/24/2023 12:24:22.520,1.094,0.223,-0.113
3/24/2023 12:24:22.530,1.137,0.227,-0.137
3/24/2023 12:24:22.540,1.18,0.238,-0.16
3/24/2023 12:24:22.550,1.227,0.254,-0.172
3/24/2023 12:24:22.560,1.27,0.262,-0.176
3/24/2023 12:24:22.570,1.309,0.27,-0.172
3/24/2023 12:24:22.580,1.32,0.27,-0.16
3/24/2023 12:24:22.590,1.293,0.246,-0.152
3/24/2023 12:24:22.600,1.242,0.195,-0.145
3/24/2023 12:24:22.610,1.195,0.133,-0.129
3/24/2023 12:24:22.620,1.148,0.047,-0.117
3/24/2023 12:24:22.630,1.121,-0.055,-0.113
3/24/2023 12:24:22.640,1.109,-0.164,-0.109
3/24/2023 12:24:22.650,1.105,-0.254,-0.094
3/24/2023 12:24:22.660,1.086,-0.285,-0.074
3/24/2023 12:24:22.670,1.051,-0.246,-0.047
3/24/2023 12:24:22.680,0.988,-0.168,-0.027
3/24/2023 12:24:22.690,0.91,-0.082,-0.004
3/24/2023 12:24:22.700,0.863,-0.027,0
3/24/2023 12:24:22.710,0.887,0,-0.02
3/24/2023 12:24:22.720,0.953,-0.004,-0.059
3/24/2023 12:24:22.730,1.023,-0.016,-0.105
3/24/2023 12:24:22.740,1.055,-0.004,-0.145
3/24/2023 12:24:22.750,1.059,0.039,-0.156
3/24/2023 12:24:22.760,1.023,0.105,-0.141
3/24/2023 12:24:22.770,0.988,0.164,-0.102
3/24/2023 12:24:22.780,0.98,0.199,-0.074
3/24/2023 12:24:22.790,1.012,0.234,-0.055
3/24/2023 12:24:22.800,1.078,0.27,-0.043
3/24/2023 12:24:22.810,1.145,0.293,-0.031
3/24/2023 12:24:22.820,1.211,0.309,-0.012
3/24/2023 12:24:22.830,1.27,0.313,0.004
3/24/2023 12:24:22.840,1.313,0.305,0.023
3/24/2023 12:24:22.850,1.336,0.281,0.055
3/24/2023 12:24:22.860,1.32,0.25,0.086
3/24/2023 12:24:22.870,1.266,0.215,0.109
3/24/2023 12:24:22.880,1.191,0.168,0.129
3/24/2023 12:24:22.890,1.109,0.121,0.141
3/24/2023 12:24:22.900,1.023,0.066,0.145
3/24/2023 12:24:22.910,0.953,0.027,0.152
3/24/2023 12:24:22.920,0.91,-0.004,0.152
3/24/2023 12:24:22.930,0.883,-0.016,0.129
3/24/2023 12:24:22.940,0.879,0,0.086
3/24/2023 12:24:22.950,0.887,0.027,0.035
3/24/2023 12:24:22.960,0.906,0.07,-0.016
3/24/2023 12:24:22.970,0.922,0.109,-0.07
3/24/2023 12:24:22.980,0.941,0.172,-0.117
3/24/2023 12:24:22.990,0.969,0.238,-0.152
3/24/2023 12:24:23.000,0.992,0.301,-0.18
3/24/2023 12:24:23.010,1.043,0.363,-0.195
3/24/2023 12:24:23.020,1.082,0.422,-0.211
3/24/2023 12:24:23.030,1.121,0.484,-0.215
3/24/2023 12:24:23.040,1.148,0.547,-0.215
3/24/2023 12:24:23.050,1.156,0.605,-0.219
3/24/2023 12:24:23.060,1.156,0.66,-0.215
3/24/2023 12:24:23.070,1.141,0.699,-0.227
3/24/2023 12:24:23.080,1.125,0.715,-0.25
3/24/2023 12:24:23.090,1.16,0.734,-0.262
3/24/2023 12:24:23.100,1.242,0.777,-0.273
3/24/2023 12:24:23.110,1.324,0.824,-0.277
3/24/2023 12:24:23.120,1.375,0.867,-0.266
3/24/2023 12:24:23.130,1.395,0.898,-0.25
3/24/2023 12:24:23.140,1.355,0.914,-0.23
3/24/2023 12:24:23.150,1.285,0.898,-0.203
3/24/2023 12:24:23.160,1.203,0.816,-0.188
3/24/2023 12:24:23.170,1.168,0.691,-0.16
3/24/2023 12:24:23.180,1.184,0.574,-0.113
3/24/2023 12:24:23.190,1.203,0.492,-0.066
3/24/2023 12:24:23.200,1.191,0.445,-0.035
3/24/2023 12:24:23.210,1.148,0.434,-0.02
3/24/2023 12:24:23.220,1.082,0.449,-0.023
3/24/2023 12:24:23.230,1.016,0.484,-0.047
3/24/2023 12:24:23.240,0.953,0.523,-0.078
3/24/2023 12:24:23.250,0.914,0.563,-0.129
3/24/2023 12:24:23.260,0.926,0.605,-0.188
3/24/2023 12:24:23.270,0.98,0.645,-0.223
3/24/2023 12:24:23.280,1.043,0.68,-0.25
3/24/2023 12:24:23.290,1.102,0.703,-0.285
3/24/2023 12:24:23.300,1.145,0.699,-0.309
3/24/2023 12:24:23.310,1.195,0.676,-0.32
3/24/2023 12:24:23.320,1.25,0.648,-0.309
3/24/2023 12:24:23.330,1.277,0.609,-0.281
3/24/2023 12:24:23.340,1.27,0.559,-0.246
3/24/2023 12:24:23.350,1.223,0.52,-0.211
3/24/2023 12:24:23.360,1.156,0.48,-0.176
3/24/2023 12:24:23.370,1.094,0.43,-0.148
3/24/2023 12:24:23.380,1.051,0.379,-0.129
3/24/2023 12:24:23.390,1.023,0.32,-0.113
3/24/2023 12:24:23.400,1.008,0.277,-0.105
3/24/2023 12:24:23.410,1,0.254,-0.102
3/24/2023 12:24:23.420,1.004,0.238,-0.09
3/24/2023 12:24:23.430,1.016,0.242,-0.074
3/24/2023 12:24:23.440,1.039,0.246,-0.055
3/24/2023 12:24:23.450,1.074,0.246,-0.059
3/24/2023 12:24:23.460,1.102,0.227,-0.066
3/24/2023 12:24:23.470,1.137,0.199,-0.086
3/24/2023 12:24:23.480,1.164,0.176,-0.105
3/24/2023 12:24:23.490,1.188,0.168,-0.113
3/24/2023 12:24:23.500,1.203,0.164,-0.121
3/24/2023 12:24:23.510,1.234,0.172,-0.117
3/24/2023 12:24:23.520,1.27,0.188,-0.125
3/24/2023 12:24:23.530,1.301,0.199,-0.117
3/24/2023 12:24:23.540,1.305,0.215,-0.113
3/24/2023 12:24:23.550,1.281,0.207,-0.109
3/24/2023 12:24:23.560,1.234,0.172,-0.129
3/24/2023 12:24:23.570,1.203,0.133,-0.141
3/24/2023 12:24:23.580,1.184,0.074,-0.152
3/24/2023 12:24:23.590,1.176,0.02,-0.152
3/24/2023 12:24:23.600,1.172,-0.035,-0.145
3/24/2023 12:24:23.610,1.156,-0.063,-0.129
3/24/2023 12:24:23.620,1.105,-0.082,-0.113
3/24/2023 12:24:23.630,1.035,-0.074,-0.086
3/24/2023 12:24:23.640,0.969,-0.051,-0.059
3/24/2023 12:24:23.650,0.949,-0.023,-0.059
3/24/2023 12:24:23.660,0.984,0,-0.082
3/24/2023 12:24:23.670,1.055,0.012,-0.121
3/24/2023 12:24:23.680,1.109,0.027,-0.156
3/24/2023 12:24:23.690,1.09,0.047,-0.172
3/24/2023 12:24:23.700,1.023,0.078,-0.168
3/24/2023 12:24:23.710,0.938,0.129,-0.141
3/24/2023 12:24:23.720,0.871,0.168,-0.117
3/24/2023 12:24:23.730,0.848,0.207,-0.105
3/24/2023 12:24:23.740,0.883,0.23,-0.094
3/24/2023 12:24:23.750,0.953,0.242,-0.09
3/24/2023 12:24:23.760,1.039,0.234,-0.082
3/24/2023 12:24:23.770,1.117,0.246,-0.074
3/24/2023 12:24:23.780,1.195,0.266,-0.066
3/24/2023 12:24:23.790,1.262,0.285,-0.051
3/24/2023 12:24:23.800,1.285,0.297,-0.031
3/24/2023 12:24:23.810,1.27,0.289,-0.016
3/24/2023 12:24:23.820,1.215,0.273,0.012
3/24/2023 12:24:23.830,1.141,0.234,0.039
3/24/2023 12:24:23.840,1.066,0.191,0.074
3/24/2023 12:24:23.850,0.988,0.141,0.102
3/24/2023 12:24:23.860,0.914,0.082,0.125
3/24/2023 12:24:23.870,0.855,0.027,0.129
3/24/2023 12:24:23.880,0.824,-0.012,0.137
3/24/2023 12:24:23.890,0.813,-0.023,0.129
3/24/2023 12:24:23.900,0.813,-0.012,0.105
3/24/2023 12:24:23.910,0.813,0.031,0.063
3/24/2023 12:24:23.920,0.824,0.082,0.004
3/24/2023 12:24:23.930,0.848,0.117,-0.051
3/24/2023 12:24:23.940,0.875,0.16,-0.09
3/24/2023 12:24:23.950,0.91,0.207,-0.133
3/24/2023 12:24:23.960,0.941,0.262,-0.148
3/24/2023 12:24:23.970,0.973,0.324,-0.156
3/24/2023 12:24:23.980,1.008,0.395,-0.156
3/24/2023 12:24:23.990,1.039,0.453,-0.152
3/24/2023 12:24:24.000,1.059,0.516,-0.156
3/24/2023 12:24:24.010,1.09,0.566,-0.152
3/24/2023 12:24:24.020,1.117,0.613,-0.16
3/24/2023 12:24:24.030,1.145,0.652,-0.168
3/24/2023 12:24:24.040,1.18,0.684,-0.176
3/24/2023 12:24:24.050,1.223,0.711,-0.18
3/24/2023 12:24:24.060,1.281,0.746,-0.18
3/24/2023 12:24:24.070,1.34,0.781,-0.18
3/24/2023 12:24:24.080,1.398,0.816,-0.176
3/24/2023 12:24:24.090,1.441,0.863,-0.164
3/24/2023 12:24:24.100,1.445,0.887,-0.137
3/24/2023 12:24:24.110,1.398,0.863,-0.105
3/24/2023 12:24:24.120,1.316,0.781,-0.07
3/24/2023 12:24:24.130,1.23,0.641,-0.063
3/24/2023 12:24:24.140,1.215,0.492,-0.035
3/24/2023 12:24:24.150,1.277,0.383,0.016
3/24/2023 12:24:24.160,1.344,0.34,0.055
3/24/2023 12:24:24.170,1.34,0.348,0.07
3/24/2023 12:24:24.180,1.27,0.375,0.055
3/24/2023 12:24:24.190,1.168,0.422,0.031
3/24/2023 12:24:24.200,1.066,0.48,-0.004
3/24/2023 12:24:24.210,0.984,0.539,-0.055
3/24/2023 12:24:24.220,0.93,0.594,-0.113
3/24/2023 12:24:24.230,0.922,0.652,-0.18
3/24/2023 12:24:24.240,0.961,0.707,-0.23
3/24/2023 12:24:24.250,1.027,0.754,-0.266
3/24/2023 12:24:24.260,1.105,0.773,-0.297
3/24/2023 12:24:24.270,1.168,0.777,-0.316
3/24/2023 12:24:24.280,1.234,0.746,-0.313
3/24/2023 12:24:24.290,1.289,0.688,-0.285
3/24/2023 12:24:24.300,1.316,0.625,-0.25
3/24/2023 12:24:24.310,1.301,0.566,-0.203
3/24/2023 12:24:24.320,1.238,0.508,-0.156
3/24/2023 12:24:24.330,1.164,0.453,-0.109
3/24/2023 12:24:24.340,1.09,0.375,-0.066
3/24/2023 12:24:24.350,1.035,0.313,-0.039
3/24/2023 12:24:24.360,0.996,0.254,-0.02
3/24/2023 12:24:24.370,0.969,0.211,-0.012
3/24/2023 12:24:24.380,0.945,0.191,-0.016
3/24/2023 12:24:24.390,0.93,0.188,-0.027
3/24/2023 12:24:24.400,0.93,0.188,-0.043
3/24/2023 12:24:24.410,0.945,0.203,-0.055
3/24/2023 12:24:24.420,0.965,0.215,-0.074
3/24/2023 12:24:24.430,0.988,0.23,-0.09
3/24/2023 12:24:24.440,1.023,0.238,-0.113
3/24/2023 12:24:24.450,1.066,0.242,-0.133
3/24/2023 12:24:24.460,1.117,0.246,-0.141
3/24/2023 12:24:24.470,1.164,0.238,-0.148
3/24/2023 12:24:24.480,1.207,0.238,-0.16
3/24/2023 12:24:24.490,1.242,0.238,-0.172
3/24/2023 12:24:24.500,1.242,0.246,-0.176
3/24/2023 12:24:24.510,1.25,0.238,-0.156
3/24/2023 12:24:24.520,1.227,0.238,-0.133
3/24/2023 12:24:24.530,1.191,0.23,-0.117
3/24/2023 12:24:24.540,1.156,0.219,-0.102
3/24/2023 12:24:24.550,1.141,0.191,-0.09
3/24/2023 12:24:24.560,1.133,0.168,-0.094
3/24/2023 12:24:24.570,1.133,0.141,-0.102
3/24/2023 12:24:24.580,1.133,0.105,-0.105
3/24/2023 12:24:24.590,1.117,0.074,-0.117
3/24/2023 12:24:24.600,1.086,0.055,-0.121
3/24/2023 12:24:24.610,1.027,0.035,-0.109
3/24/2023 12:24:24.620,0.977,0.023,-0.078
3/24/2023 12:24:24.630,0.934,0.016,-0.051
3/24/2023 12:24:24.640,0.93,0.012,-0.043
3/24/2023 12:24:24.650,0.965,0.016,-0.043
3/24/2023 12:24:24.660,1.004,0.023,-0.051
3/24/2023 12:24:24.670,1.012,0.031,-0.066
3/24/2023 12:24:24.680,0.992,0.066,-0.074
3/24/2023 12:24:24.690,0.945,0.102,-0.07
3/24/2023 12:24:24.700,0.895,0.145,-0.059
3/24/2023 12:24:24.710,0.855,0.18,-0.055
3/24/2023 12:24:24.720,0.852,0.211,-0.055
3/24/2023 12:24:24.730,0.898,0.246,-0.051
3/24/2023 12:24:24.740,0.973,0.262,-0.047
3/24/2023 12:24:24.750,1.039,0.266,-0.047
3/24/2023 12:24:24.760,1.105,0.273,-0.039
3/24/2023 12:24:24.770,1.184,0.281,-0.027
3/24/2023 12:24:24.780,1.242,0.293,0
3/24/2023 12:24:24.790,1.254,0.305,0.02
3/24/2023 12:24:24.800,1.227,0.305,0.051
3/24/2023 12:24:24.810,1.168,0.293,0.074
3/24/2023 12:24:24.820,1.098,0.273,0.094
3/24/2023 12:24:24.830,1.023,0.23,0.102
3/24/2023 12:24:24.840,0.957,0.184,0.109
3/24/2023 12:24:24.850,0.895,0.137,0.117
3/24/2023 12:24:24.860,0.848,0.094,0.109
3/24/2023 12:24:24.870,0.82,0.059,0.094
3/24/2023 12:24:24.880,0.805,0.051,0.059
3/24/2023 12:24:24.890,0.813,0.074,0.02
3/24/2023 12:24:24.900,0.824,0.113,-0.023
3/24/2023 12:24:24.910,0.848,0.156,-0.051
3/24/2023 12:24:24.920,0.875,0.195,-0.074
3/24/2023 12:24:24.930,0.91,0.242,-0.086
3/24/2023 12:24:24.940,0.941,0.289,-0.102
3/24/2023 12:24:24.950,0.977,0.336,-0.125
3/24/2023 12:24:24.960,1.012,0.379,-0.141
3/24/2023 12:24:24.970,1.055,0.41,-0.152
3/24/2023 12:24:24.980,1.094,0.449,-0.164
3/24/2023 12:24:24.990,1.129,0.5,-0.164
3/24/2023 12:24:25.000,1.141,0.551,-0.164
3/24/2023 12:24:25.010,1.16,0.59,-0.16
3/24/2023 12:24:25.020,1.176,0.609,-0.164
3/24/2023 12:24:25.030,1.211,0.629,-0.18
3/24/2023 12:24:25.040,1.25,0.645,-0.203
3/24/2023 12:24:25.050,1.316,0.656,-0.215
3/24/2023 12:24:25.060,1.391,0.688,-0.215
3/24/2023 12:24:25.070,1.453,0.746,-0.199
3/24/2023 12:24:25.080,1.461,0.801,-0.18
3/24/2023 12:24:25.090,1.418,0.844,-0.164
3/24/2023 12:24:25.100,1.344,0.844,-0.16
3/24/2023 12:24:25.110,1.289,0.793,-0.168
3/24/2023 12:24:25.120,1.301,0.727,-0.152
3/24/2023 12:24:25.130,1.344,0.66,-0.121
3/24/2023 12:24:25.140,1.367,0.613,-0.082
3/24/2023 12:24:25.150,1.316,0.586,-0.051
3/24/2023 12:24:25.160,1.215,0.57,-0.031
3/24/2023 12:24:25.170,1.102,0.582,-0.031
3/24/2023 12:24:25.180,0.992,0.594,-0.047
3/24/2023 12:24:25.190,0.902,0.59,-0.098
3/24/2023 12:24:25.200,0.875,0.598,-0.145
3/24/2023 12:24:25.210,0.918,0.629,-0.184
3/24/2023 12:24:25.220,1,0.664,-0.215
3/24/2023 12:24:25.230,1.086,0.699,-0.246
3/24/2023 12:24:25.240,1.145,0.715,-0.285
3/24/2023 12:24:25.250,1.191,0.707,-0.305
3/24/2023 12:24:25.260,1.25,0.691,-0.305
3/24/2023 12:24:25.270,1.293,0.656,-0.277
3/24/2023 12:24:25.280,1.313,0.621,-0.246
3/24/2023 12:24:25.290,1.277,0.578,-0.207
3/24/2023 12:24:25.300,1.199,0.527,-0.168
3/24/2023 12:24:25.310,1.117,0.473,-0.133
3/24/2023 12:24:25.320,1.047,0.406,-0.098
3/24/2023 12:24:25.330,0.996,0.34,-0.07
3/24/2023 12:24:25.340,0.969,0.281,-0.055
3/24/2023 12:24:25.350,0.953,0.238,-0.043
3/24/2023 12:24:25.360,0.945,0.223,-0.039
3/24/2023 12:24:25.370,0.949,0.207,-0.055
3/24/2023 12:24:25.380,0.969,0.203,-0.066
3/24/2023 12:24:25.390,0.988,0.207,-0.078
3/24/2023 12:24:25.400,1.02,0.207,-0.098
3/24/2023 12:24:25.410,1.051,0.219,-0.109
3/24/2023 12:24:25.420,1.094,0.223,-0.129
3/24/2023 12:24:25.430,1.129,0.234,-0.141
3/24/2023 12:24:25.440,1.164,0.238,-0.148
3/24/2023 12:24:25.450,1.195,0.246,-0.16
3/24/2023 12:24:25.460,1.23,0.25,-0.156
3/24/2023 12:24:25.470,1.262,0.25,-0.152
3/24/2023 12:24:25.480,1.262,0.246,-0.156
3/24/2023 12:24:25.490,1.234,0.234,-0.16
3/24/2023 12:24:25.500,1.18,0.219,-0.168
3/24/2023 12:24:25.510,1.148,0.191,-0.172
3/24/2023 12:24:25.520,1.145,0.172,-0.176
3/24/2023 12:24:25.530,1.168,0.164,-0.188
3/24/2023 12:24:25.540,1.207,0.164,-0.203
3/24/2023 12:24:25.550,1.234,0.164,-0.215
3/24/2023 12:24:25.560,1.227,0.176,-0.223
3/24/2023 12:24:25.570,1.168,0.176,-0.227
3/24/2023 12:24:25.580,1.086,0.168,-0.207
3/24/2023 12:24:25.590,1.004,0.164,-0.172
3/24/2023 12:24:25.600,0.977,0.18,-0.137
3/24/2023 12:24:25.610,1.008,0.188,-0.133
3/24/2023 12:24:25.620,1.078,0.188,-0.145
3/24/2023 12:24:25.630,1.113,0.172,-0.16
3/24/2023 12:24:25.640,1.098,0.152,-0.164
3/24/2023 12:24:25.650,1.043,0.152,-0.145
3/24/2023 12:24:25.660,0.969,0.172,-0.09
3/24/2023 12:24:25.670,0.898,0.199,-0.039
3/24/2023 12:24:25.680,0.855,0.215,-0.012
3/24/2023 12:24:25.690,0.871,0.223,0
3/24/2023 12:24:25.700,0.926,0.215,-0.008
3/24/2023 12:24:25.710,0.996,0.195,-0.02
3/24/2023 12:24:25.720,1.063,0.18,-0.02
3/24/2023 12:24:25.730,1.117,0.18,-0.023
3/24/2023 12:24:25.740,1.152,0.188,-0.027
3/24/2023 12:24:25.750,1.164,0.195,-0.02
3/24/2023 12:24:25.760,1.137,0.203,0
3/24/2023 12:24:25.770,1.078,0.203,0.016
3/24/2023 12:24:25.780,1.02,0.207,0.074
3/24/2023 12:24:25.790,0.953,0.211,0.129
3/24/2023 12:24:25.800,0.879,0.211,0.152
3/24/2023 12:24:25.810,0.828,0.191,0.18
3/24/2023 12:24:25.820,0.781,0.148,0.191
3/24/2023 12:24:25.830,0.762,0.102,0.172
3/24/2023 12:24:25.840,0.75,0.055,0.16
3/24/2023 12:24:25.850,0.738,0.031,0.137
3/24/2023 12:24:25.860,0.75,0.031,0.102
3/24/2023 12:24:25.870,0.77,0.066,0.07
3/24/2023 12:24:25.880,0.801,0.113,0.039
3/24/2023 12:24:25.890,0.84,0.156,0.02
3/24/2023 12:24:25.900,0.875,0.195,0.012
3/24/2023 12:24:25.910,0.91,0.234,0.012
3/24/2023 12:24:25.920,0.945,0.285,0.008
3/24/2023 12:24:25.930,0.988,0.336,0
3/24/2023 12:24:25.940,1.039,0.395,-0.004
3/24/2023 12:24:25.950,1.102,0.457,-0.012
3/24/2023 12:24:25.960,1.168,0.516,-0.031
3/24/2023 12:24:25.970,1.227,0.582,-0.055
3/24/2023 12:24:25.980,1.266,0.641,-0.086
3/24/2023 12:24:25.990,1.301,0.688,-0.125
3/24/2023 12:24:26.000,1.324,0.727,-0.164
3/24/2023 12:24:26.010,1.363,0.77,-0.203
3/24/2023 12:24:26.020,1.418,0.828,-0.234
3/24/2023 12:24:26.030,1.492,0.875,-0.242
3/24/2023 12:24:26.040,1.555,0.906,-0.234
3/24/2023 12:24:26.050,1.566,0.891,-0.223
3/24/2023 12:24:26.060,1.523,0.809,-0.195
3/24/2023 12:24:26.070,1.445,0.664,-0.16
3/24/2023 12:24:26.080,1.395,0.508,-0.113
3/24/2023 12:24:26.090,1.398,0.391,-0.063
3/24/2023 12:24:26.100,1.434,0.332,-0.012
3/24/2023 12:24:26.110,1.441,0.328,0.016
3/24/2023 12:24:26.120,1.379,0.344,0.039
3/24/2023 12:24:26.130,1.266,0.383,0.047
3/24/2023 12:24:26.140,1.129,0.43,0.023
3/24/2023 12:24:26.150,1,0.465,-0.012
3/24/2023 12:24:26.160,0.887,0.504,-0.066
3/24/2023 12:24:26.170,0.809,0.539,-0.145
3/24/2023 12:24:26.180,0.785,0.586,-0.207
3/24/2023 12:24:26.190,0.813,0.641,-0.242
3/24/2023 12:24:26.200,0.879,0.691,-0.262
3/24/2023 12:24:26.210,0.961,0.73,-0.285
3/24/2023 12:24:26.220,1.047,0.75,-0.301
3/24/2023 12:24:26.230,1.137,0.758,-0.309
3/24/2023 12:24:26.240,1.227,0.738,-0.309
3/24/2023 12:24:26.250,1.285,0.699,-0.289
3/24/2023 12:24:26.260,1.285,0.648,-0.25
3/24/2023 12:24:26.270,1.238,0.582,-0.211
3/24/2023 12:24:26.280,1.168,0.508,-0.168
3/24/2023 12:24:26.290,1.105,0.434,-0.121
3/24/2023 12:24:26.300,1.047,0.355,-0.07
3/24/2023 12:24:26.310,1.008,0.293,-0.031
3/24/2023 12:24:26.320,0.98,0.238,-0.008
3/24/2023 12:24:26.330,0.961,0.191,-0.004
3/24/2023 12:24:26.340,0.957,0.164,-0.016
3/24/2023 12:24:26.350,0.953,0.148,-0.023
3/24/2023 12:24:26.360,0.945,0.145,-0.039
3/24/2023 12:24:26.370,0.938,0.148,-0.059
3/24/2023 12:24:26.380,0.934,0.168,-0.07
3/24/2023 12:24:26.390,0.941,0.191,-0.09
3/24/2023 12:24:26.400,0.957,0.215,-0.102
3/24/2023 12:24:26.410,0.988,0.227,-0.109
3/24/2023 12:24:26.420,1.012,0.23,-0.121
3/24/2023 12:24:26.430,1.039,0.242,-0.125
3/24/2023 12:24:26.440,1.066,0.242,-0.121
3/24/2023 12:24:26.450,1.09,0.234,-0.117
3/24/2023 12:24:26.460,1.113,0.23,-0.105
3/24/2023 12:24:26.470,1.121,0.223,-0.102
3/24/2023 12:24:26.480,1.125,0.207,-0.098
3/24/2023 12:24:26.490,1.121,0.207,-0.105
3/24/2023 12:24:26.500,1.102,0.203,-0.109
3/24/2023 12:24:26.510,1.102,0.195,-0.117
3/24/2023 12:24:26.520,1.109,0.191,-0.129
3/24/2023 12:24:26.530,1.121,0.199,-0.129
3/24/2023 12:24:26.540,1.125,0.207,-0.133
3/24/2023 12:24:26.550,1.109,0.223,-0.141
3/24/2023 12:24:26.560,1.074,0.234,-0.125
3/24/2023 12:24:26.570,1.016,0.242,-0.098
3/24/2023 12:24:26.580,0.949,0.246,-0.063
3/24/2023 12:24:26.590,0.906,0.234,-0.039
3/24/2023 12:24:26.600,0.938,0.223,-0.035
3/24/2023 12:24:26.610,1.012,0.211,-0.035
3/24/2023 12:24:26.620,1.063,0.195,-0.035
3/24/2023 12:24:26.630,1.051,0.172,-0.043
3/24/2023 12:24:26.640,1.012,0.148,-0.043
3/24/2023 12:24:26.650,0.977,0.141,-0.035
3/24/2023 12:24:26.660,0.938,0.148,-0.023
3/24/2023 12:24:26.670,0.91,0.156,-0.023
3/24/2023 12:24:26.680,0.902,0.176,-0.023
3/24/2023 12:24:26.690,0.918,0.203,-0.012
3/24/2023 12:24:26.700,0.949,0.227,-0.008
3/24/2023 12:24:26.710,0.988,0.242,0
3/24/2023 12:24:26.720,1.039,0.25,0.016
3/24/2023 12:24:26.730,1.098,0.258,0.027
3/24/2023 12:24:26.740,1.152,0.27,0.039
3/24/2023 12:24:26.750,1.18,0.293,0.043
3/24/2023 12:24:26.760,1.164,0.305,0.043
3/24/2023 12:24:26.770,1.125,0.32,0.039
3/24/2023 12:24:26.780,1.063,0.328,0.039
3/24/2023 12:24:26.790,0.98,0.32,0.039
3/24/2023 12:24:26.800,0.898,0.305,0.035
3/24/2023 12:24:26.810,0.824,0.281,0.031
3/24/2023 12:24:26.820,0.77,0.254,0.027
3/24/2023 12:24:26.830,0.73,0.223,0.012
3/24/2023 12:24:26.840,0.711,0.199,0
3/24/2023 12:24:26.850,0.711,0.188,-0.008
3/24/2023 12:24:26.860,0.723,0.191,-0.012
3/24/2023 12:24:26.870,0.746,0.207,-0.02
3/24/2023 12:24:26.880,0.773,0.227,-0.027
3/24/2023 12:24:26.890,0.805,0.25,-0.031
3/24/2023 12:24:26.900,0.828,0.258,-0.035
3/24/2023 12:24:26.910,0.855,0.27,-0.043
3/24/2023 12:24:26.920,0.879,0.281,-0.059
3/24/2023 12:24:26.930,0.91,0.293,-0.074
3/24/2023 12:24:26.940,0.945,0.313,-0.078
3/24/2023 12:24:26.950,0.992,0.352,-0.082
3/24/2023 12:24:26.960,1.035,0.398,-0.074
3/24/2023 12:24:26.970,1.07,0.449,-0.07
3/24/2023 12:24:26.980,1.094,0.504,-0.063
3/24/2023 12:24:26.990,1.109,0.535,-0.07
3/24/2023 12:24:27.000,1.141,0.566,-0.098
3/24/2023 12:24:27.010,1.215,0.582,-0.121
3/24/2023 12:24:27.020,1.316,0.625,-0.137
3/24/2023 12:24:27.030,1.426,0.688,-0.133
3/24/2023 12:24:27.040,1.48,0.766,-0.121
3/24/2023 12:24:27.050,1.48,0.852,-0.105
3/24/2023 12:24:27.060,1.445,0.914,-0.109
3/24/2023 12:24:27.070,1.422,0.926,-0.129
3/24/2023 12:24:27.080,1.461,0.887,-0.117
3/24/2023 12:24:27.090,1.516,0.816,-0.082
3/24/2023 12:24:27.100,1.523,0.719,-0.039
3/24/2023 12:24:27.110,1.461,0.617,-0.004
3/24/2023 12:24:27.120,1.375,0.535,0.031
3/24/2023 12:24:27.130,1.262,0.48,0.051
3/24/2023 12:24:27.140,1.148,0.457,0.031
3/24/2023 12:24:27.150,1.051,0.441,-0.012
3/24/2023 12:24:27.160,1,0.449,-0.055
3/24/2023 12:24:27.170,1.016,0.469,-0.09
3/24/2023 12:24:27.180,1.086,0.508,-0.121
3/24/2023 12:24:27.190,1.18,0.543,-0.152
3/24/2023 12:24:27.200,1.262,0.574,-0.176
3/24/2023 12:24:27.210,1.324,0.59,-0.195
3/24/2023 12:24:27.220,1.359,0.586,-0.199
3/24/2023 12:24:27.230,1.363,0.574,-0.191
3/24/2023 12:24:27.240,1.336,0.555,-0.16
3/24/2023 12:24:27.250,1.273,0.52,-0.121
3/24/2023 12:24:27.260,1.191,0.473,-0.082
3/24/2023 12:24:27.270,1.09,0.43,-0.047
3/24/2023 12:24:27.280,1.004,0.383,-0.02
3/24/2023 12:24:27.290,0.934,0.344,-0.012
3/24/2023 12:24:27.300,0.887,0.301,-0.012
3/24/2023 12:24:27.310,0.855,0.273,-0.008
3/24/2023 12:24:27.320,0.852,0.258,-0.012
3/24/2023 12:24:27.330,0.859,0.246,-0.031
3/24/2023 12:24:27.340,0.879,0.242,-0.051
3/24/2023 12:24:27.350,0.895,0.238,-0.07
3/24/2023 12:24:27.360,0.906,0.234,-0.105
3/24/2023 12:24:27.370,0.938,0.23,-0.121
3/24/2023 12:24:27.380,0.961,0.23,-0.133
3/24/2023 12:24:27.390,0.988,0.23,-0.145
3/24/2023 12:24:27.400,1.02,0.23,-0.148
3/24/2023 12:24:27.410,1.047,0.23,-0.148
3/24/2023 12:24:27.420,1.086,0.227,-0.145
3/24/2023 12:24:27.430,1.129,0.219,-0.141
3/24/2023 12:24:27.440,1.16,0.207,-0.133
3/24/2023 12:24:27.450,1.176,0.199,-0.117
3/24/2023 12:24:27.460,1.16,0.203,-0.113
3/24/2023 12:24:27.470,1.133,0.203,-0.098
3/24/2023 12:24:27.480,1.102,0.203,-0.094
3/24/2023 12:24:27.490,1.113,0.207,-0.105
3/24/2023 12:24:27.500,1.133,0.207,-0.109
3/24/2023 12:24:27.510,1.18,0.211,-0.113
3/24/2023 12:24:27.520,1.203,0.211,-0.129
3/24/2023 12:24:27.530,1.184,0.203,-0.133
3/24/2023 12:24:27.540,1.129,0.184,-0.121
3/24/2023 12:24:27.550,1.055,0.16,-0.102
3/24/2023 12:24:27.560,1.02,0.137,-0.102
3/24/2023 12:24:27.570,1.035,0.121,-0.109
3/24/2023 12:24:27.580,1.078,0.098,-0.133
3/24/2023 12:24:27.590,1.094,0.078,-0.137
3/24/2023 12:24:27.600,1.066,0.078,-0.121
3/24/2023 12:24:27.610,1.008,0.102,-0.074
3/24/2023 12:24:27.620,0.93,0.141,-0.02
3/24/2023 12:24:27.630,0.855,0.18,0.02
3/24/2023 12:24:27.640,0.824,0.211,0.023
3/24/2023 12:24:27.650,0.84,0.215,0.004
3/24/2023 12:24:27.660,0.902,0.211,-0.023
3/24/2023 12:24:27.670,0.98,0.219,-0.043
3/24/2023 12:24:27.680,1.051,0.219,-0.059
3/24/2023 12:24:27.690,1.117,0.227,-0.066
3/24/2023 12:24:27.700,1.176,0.23,-0.07
3/24/2023 12:24:27.710,1.211,0.25,-0.07
3/24/2023 12:24:27.720,1.199,0.277,-0.051
3/24/2023 12:24:27.730,1.145,0.293,-0.023
3/24/2023 12:24:27.740,1.066,0.293,0.008
3/24/2023 12:24:27.750,0.988,0.285,0.039
3/24/2023 12:24:27.760,0.922,0.258,0.066
3/24/2023 12:24:27.770,0.867,0.223,0.09
3/24/2023 12:24:27.780,0.824,0.18,0.098
3/24/2023 12:24:27.790,0.793,0.137,0.09
3/24/2023 12:24:27.800,0.777,0.105,0.066
3/24/2023 12:24:27.810,0.773,0.09,0.031
3/24/2023 12:24:27.820,0.785,0.102,0.004
3/24/2023 12:24:27.830,0.813,0.133,-0.027
3/24/2023 12:24:27.840,0.848,0.168,-0.055
3/24/2023 12:24:27.850,0.895,0.203,-0.066
3/24/2023 12:24:27.860,0.93,0.246,-0.086
3/24/2023 12:24:27.870,0.965,0.289,-0.094
3/24/2023 12:24:27.880,1,0.324,-0.094
3/24/2023 12:24:27.890,1.039,0.371,-0.102
3/24/2023 12:24:27.900,1.074,0.418,-0.105
3/24/2023 12:24:27.910,1.102,0.469,-0.109
3/24/2023 12:24:27.920,1.133,0.523,-0.109
3/24/2023 12:24:27.930,1.16,0.574,-0.102
3/24/2023 12:24:27.940,1.188,0.617,-0.105
3/24/2023 12:24:27.950,1.211,0.656,-0.117
3/24/2023 12:24:27.960,1.254,0.695,-0.133
3/24/2023 12:24:27.970,1.313,0.742,-0.156
3/24/2023 12:24:27.980,1.398,0.789,-0.176
3/24/2023 12:24:27.990,1.477,0.84,-0.188
3/24/2023 12:24:28.000,1.52,0.875,-0.191
3/24/2023 12:24:28.010,1.527,0.879,-0.176
3/24/2023 12:24:28.020,1.477,0.828,-0.16
3/24/2023 12:24:28.030,1.398,0.723,-0.152
3/24/2023 12:24:28.040,1.352,0.59,-0.121
3/24/2023 12:24:28.050,1.355,0.484,-0.059
3/24/2023 12:24:28.060,1.375,0.434,-0.008
3/24/2023 12:24:28.070,1.348,0.422,0.031
3/24/2023 12:24:28.080,1.273,0.43,0.031
3/24/2023 12:24:28.090,1.184,0.449,0.012
3/24/2023 12:24:28.100,1.086,0.477,-0.012
3/24/2023 12:24:28.110,0.992,0.512,-0.055
3/24/2023 12:24:28.120,0.914,0.539,-0.098
3/24/2023 12:24:28.130,0.879,0.582,-0.141
3/24/2023 12:24:28.140,0.902,0.633,-0.172
3/24/2023 12:24:28.150,0.969,0.691,-0.199
3/24/2023 12:24:28.160,1.039,0.723,-0.219
3/24/2023 12:24:28.170,1.102,0.727,-0.238
3/24/2023 12:24:28.180,1.164,0.707,-0.246
3/24/2023 12:24:28.190,1.23,0.668,-0.234
3/24/2023 12:24:28.200,1.277,0.621,-0.211
3/24/2023 12:24:28.210,1.285,0.578,-0.18
3/24/2023 12:24:28.220,1.246,0.527,-0.145
3/24/2023 12:24:28.230,1.172,0.477,-0.105
3/24/2023 12:24:28.240,1.094,0.418,-0.066
3/24/2023 12:24:28.250,1.023,0.344,-0.031
3/24/2023 12:24:28.260,0.969,0.285,-0.012
3/24/2023 12:24:28.270,0.934,0.246,0
3/24/2023 12:24:28.280,0.91,0.215,-0.004
3/24/2023 12:24:28.290,0.902,0.199,-0.016
3/24/2023 12:24:28.300,0.902,0.199,-0.035
3/24/2023 12:24:28.310,0.91,0.203,-0.051
3/24/2023 12:24:28.320,0.914,0.211,-0.07
3/24/2023 12:24:28.330,0.926,0.227,-0.098
3/24/2023 12:24:28.340,0.941,0.234,-0.113
3/24/2023 12:24:28.350,0.965,0.242,-0.121
3/24/2023 12:24:28.360,1,0.25,-0.133
3/24/2023 12:24:28.370,1.047,0.258,-0.137
3/24/2023 12:24:28.380,1.09,0.262,-0.121
3/24/2023 12:24:28.390,1.137,0.258,-0.113
3/24/2023 12:24:28.400,1.176,0.258,-0.113
3/24/2023 12:24:28.410,1.211,0.25,-0.113
3/24/2023 12:24:28.420,1.223,0.242,-0.117
3/24/2023 12:24:28.430,1.227,0.234,-0.121
3/24/2023 12:24:28.440,1.223,0.223,-0.129
3/24/2023 12:24:28.450,1.203,0.211,-0.137
3/24/2023 12:24:28.460,1.211,0.199,-0.133
3/24/2023 12:24:28.470,1.23,0.199,-0.125
3/24/2023 12:24:28.480,1.258,0.191,-0.117
3/24/2023 12:24:28.490,1.258,0.16,-0.102
3/24/2023 12:24:28.500,1.203,0.121,-0.09
3/24/2023 12:24:28.510,1.129,0.07,-0.074
3/24/2023 12:24:28.520,1.039,0.035,-0.055
3/24/2023 12:24:28.530,0.953,0.004,-0.023
3/24/2023 12:24:28.540,0.895,-0.016,-0.004
3/24/2023 12:24:28.550,0.887,-0.027,0.008
3/24/2023 12:24:28.560,0.926,-0.023,0.016
3/24/2023 12:24:28.570,0.965,-0.008,0.012
3/24/2023 12:24:28.580,0.973,0.004,-0.016
3/24/2023 12:24:28.590,0.965,0.02,-0.051
3/24/2023 12:24:28.600,0.957,0.031,-0.086
3/24/2023 12:24:28.610,0.949,0.063,-0.105
3/24/2023 12:24:28.620,0.941,0.105,-0.113
3/24/2023 12:24:28.630,0.949,0.168,-0.113
3/24/2023 12:24:28.640,0.977,0.23,-0.105
3/24/2023 12:24:28.650,1.023,0.281,-0.086
3/24/2023 12:24:28.660,1.07,0.324,-0.063
3/24/2023 12:24:28.670,1.125,0.344,-0.039
3/24/2023 12:24:28.680,1.172,0.355,-0.02
3/24/2023 12:24:28.690,1.195,0.367,-0.004
3/24/2023 12:24:28.700,1.191,0.375,0.008
3/24/2023 12:24:28.710,1.141,0.375,0.02
3/24/2023 12:24:28.720,1.078,0.359,0.047
3/24/2023 12:24:28.730,1.008,0.336,0.078
3/24/2023 12:24:28.740,0.938,0.313,0.098
3/24/2023 12:24:28.750,0.883,0.273,0.129
3/24/2023 12:24:28.760,0.84,0.215,0.133
3/24/2023 12:24:28.770,0.805,0.148,0.105
3/24/2023 12:24:28.780,0.801,0.082,0.063
3/24/2023 12:24:28.790,0.813,0.031,0.016
3/24/2023 12:24:28.800,0.828,0.012,-0.031
3/24/2023 12:24:28.810,0.848,0.039,-0.063
3/24/2023 12:24:28.820,0.863,0.09,-0.09
3/24/2023 12:24:28.830,0.891,0.152,-0.102
