------------ Data File Created By ActiGraph GT3X+ ActiLife v6.13.4 Firmware v1.7.2 date format M/d/yyyy at 100 Hz  Filter Normal -----------
Serial Number: TAS1H50200818
Start Time 12:06:00
Start Date 4/14/2023
Epoch Period (hh:mm:ss) 00:00:00
Download Time 12:22:37
Download Date 4/14/2023
Current Memory Address: 0
Current Battery Voltage: 4.21     Mode = 12
--------------------------------------------------
Timestamp,Accelerometer X,Accelerometer Y,Accelerometer Z
4/14/2023 12:06:00.000,0.891,0.305,-0.125
4/14/2023 12:06:00.010,0.926,0.289,-0.145
4/14/2023 12:06:00.020,0.961,0.262,-0.191
4/14/2023 12:06:00.030,0.996,0.211,-0.246
4/14/2023 12:06:00.040,1.008,0.152,-0.293
4/14/2023 12:06:00.050,0.988,0.078,-0.324
4/14/2023 12:06:00.060,0.953,0,-0.332
4/14/2023 12:06:00.070,0.922,-0.055,-0.328
4/14/2023 12:06:00.080,0.91,-0.082,-0.309
4/14/2023 12:06:00.090,0.918,-0.07,-0.27
4/14/2023 12:06:00.100,0.938,-0.051,-0.23
4/14/2023 12:06:00.110,0.957,-0.031,-0.191
4/14/2023 12:06:00.120,0.969,-0.027,-0.152
4/14/2023 12:06:00.130,0.957,-0.031,-0.129
4/14/2023 12:06:00.140,0.938,-0.063,-0.121
4/14/2023 12:06:00.150,0.926,-0.125,-0.125
4/14/2023 12:06:00.160,0.949,-0.199,-0.121
4/14/2023 12:06:00.170,0.996,-0.25,-0.113
4/14/2023 12:06:00.180,1.02,-0.277,-0.105
4/14/2023 12:06:00.190,0.992,-0.27,-0.094
4/14/2023 12:06:00.200,0.922,-0.219,-0.09
4/14/2023 12:06:00.210,0.855,-0.145,-0.078
4/14/2023 12:06:00.220,0.82,-0.074,-0.059
4/14/2023 12:06:00.230,0.82,-0.008,-0.031
4/14/2023 12:06:00.240,0.859,0.035,-0.012
4/14/2023 12:06:00.250,0.918,0.047,-0.004
4/14/2023 12:06:00.260,0.984,0.059,0
4/14/2023 12:06:00.270,1.051,0.063,-0.004
4/14/2023 12:06:00.280,1.113,0.07,-0.004
4/14/2023 12:06:00.290,1.168,0.078,-0.012
4/14/2023 12:06:00.300,1.23,0.078,-0.027
4/14/2023 12:06:00.310,1.305,0.086,-0.031
4/14/2023 12:06:00.320,1.363,0.113,-0.039
4/14/2023 12:06:00.330,1.383,0.141,-0.051
4/14/2023 12:06:00.340,1.363,0.156,-0.063
4/14/2023 12:06:00.350,1.309,0.18,-0.047
4/14/2023 12:06:00.360,1.258,0.207,-0.023
4/14/2023 12:06:00.370,1.207,0.234,0.012
4/14/2023 12:06:00.380,1.164,0.23,0.043
4/14/2023 12:06:00.390,1.102,0.223,0.066
4/14/2023 12:06:00.400,1.008,0.184,0.07
4/14/2023 12:06:00.410,0.91,0.141,0.047
4/14/2023 12:06:00.420,0.875,0.086,0
4/14/2023 12:06:00.430,0.906,0.016,-0.035
4/14/2023 12:06:00.440,0.969,-0.043,-0.055
4/14/2023 12:06:00.450,1.023,-0.063,-0.031
4/14/2023 12:06:00.460,1.078,-0.043,0.008
4/14/2023 12:06:00.470,1.129,-0.004,0.059
4/14/2023 12:06:00.480,1.168,0.023,0.09
4/14/2023 12:06:00.490,1.184,0.063,0.094
4/14/2023 12:06:00.500,1.164,0.102,0.078
4/14/2023 12:06:00.510,1.141,0.145,0.066
4/14/2023 12:06:00.520,1.105,0.191,0.047
4/14/2023 12:06:00.530,1.082,0.23,0.039
4/14/2023 12:06:00.540,1.07,0.262,0.035
4/14/2023 12:06:00.550,1.078,0.293,0.035
4/14/2023 12:06:00.560,1.094,0.328,0.035
4/14/2023 12:06:00.570,1.117,0.363,0.035
4/14/2023 12:06:00.580,1.141,0.379,0.031
4/14/2023 12:06:00.590,1.156,0.379,0.035
4/14/2023 12:06:00.600,1.16,0.371,0.047
4/14/2023 12:06:00.610,1.152,0.355,0.051
4/14/2023 12:06:00.620,1.156,0.355,0.051
4/14/2023 12:06:00.630,1.168,0.371,0.059
4/14/2023 12:06:00.640,1.188,0.402,0.063
4/14/2023 12:06:00.650,1.207,0.43,0.066
4/14/2023 12:06:00.660,1.238,0.449,0.063
4/14/2023 12:06:00.670,1.301,0.461,0.063
4/14/2023 12:06:00.680,1.379,0.477,0.078
4/14/2023 12:06:00.690,1.441,0.5,0.121
4/14/2023 12:06:00.700,1.43,0.523,0.172
4/14/2023 12:06:00.710,1.363,0.527,0.211
4/14/2023 12:06:00.720,1.289,0.52,0.234
4/14/2023 12:06:00.730,1.246,0.496,0.242
4/14/2023 12:06:00.740,1.219,0.457,0.238
4/14/2023 12:06:00.750,1.207,0.414,0.23
4/14/2023 12:06:00.760,1.203,0.363,0.219
4/14/2023 12:06:00.770,1.207,0.316,0.195
4/14/2023 12:06:00.780,1.227,0.285,0.164
4/14/2023 12:06:00.790,1.254,0.266,0.129
4/14/2023 12:06:00.800,1.297,0.246,0.082
4/14/2023 12:06:00.810,1.359,0.234,0.035
4/14/2023 12:06:00.820,1.438,0.207,0.004
4/14/2023 12:06:00.830,1.516,0.184,-0.02
4/14/2023 12:06:00.840,1.551,0.16,-0.031
4/14/2023 12:06:00.850,1.543,0.141,-0.027
4/14/2023 12:06:00.860,1.508,0.141,-0.016
4/14/2023 12:06:00.870,1.461,0.141,0.004
4/14/2023 12:06:00.880,1.402,0.133,0.012
4/14/2023 12:06:00.890,1.336,0.125,0.016
4/14/2023 12:06:00.900,1.27,0.113,0.012
4/14/2023 12:06:00.910,1.207,0.098,0.004
4/14/2023 12:06:00.920,1.152,0.07,-0.004
4/14/2023 12:06:00.930,1.102,0.047,-0.012
4/14/2023 12:06:00.940,1.059,0.047,-0.012
4/14/2023 12:06:00.950,1.023,0.051,-0.012
4/14/2023 12:06:00.960,0.988,0.059,-0.008
4/14/2023 12:06:00.970,0.965,0.051,0.004
4/14/2023 12:06:00.980,0.945,0.023,0.035
4/14/2023 12:06:00.990,0.926,-0.031,0.063
4/14/2023 12:06:01.000,0.891,-0.094,0.082
4/14/2023 12:06:01.010,0.871,-0.148,0.09
4/14/2023 12:06:01.020,0.836,-0.199,0.074
4/14/2023 12:06:01.030,0.813,-0.246,0.027
4/14/2023 12:06:01.040,0.801,-0.25,-0.039
4/14/2023 12:06:01.050,0.777,-0.199,-0.113
4/14/2023 12:06:01.060,0.766,-0.117,-0.191
4/14/2023 12:06:01.070,0.766,0,-0.277
4/14/2023 12:06:01.080,0.781,0.141,-0.332
4/14/2023 12:06:01.090,0.809,0.293,-0.375
4/14/2023 12:06:01.100,0.852,0.43,-0.398
4/14/2023 12:06:01.110,0.906,0.531,-0.402
4/14/2023 12:06:01.120,0.965,0.57,-0.395
4/14/2023 12:06:01.130,1.02,0.559,-0.391
4/14/2023 12:06:01.140,1.047,0.516,-0.371
4/14/2023 12:06:01.150,1.031,0.453,-0.336
4/14/2023 12:06:01.160,0.984,0.383,-0.277
4/14/2023 12:06:01.170,0.918,0.301,-0.207
4/14/2023 12:06:01.180,0.844,0.23,-0.137
4/14/2023 12:06:01.190,0.793,0.195,-0.074
4/14/2023 12:06:01.200,0.781,0.176,-0.016
4/14/2023 12:06:01.210,0.805,0.164,0.031
4/14/2023 12:06:01.220,0.824,0.156,0.051
4/14/2023 12:06:01.230,0.82,0.156,0.047
4/14/2023 12:06:01.240,0.828,0.188,0.031
4/14/2023 12:06:01.250,0.859,0.23,0
4/14/2023 12:06:01.260,0.922,0.27,-0.043
4/14/2023 12:06:01.270,0.984,0.285,-0.086
4/14/2023 12:06:01.280,1.027,0.262,-0.117
4/14/2023 12:06:01.290,1.031,0.227,-0.117
4/14/2023 12:06:01.300,1,0.188,-0.09
4/14/2023 12:06:01.310,1,0.156,-0.066
4/14/2023 12:06:01.320,1.031,0.152,-0.051
4/14/2023 12:06:01.330,1.074,0.18,-0.035
4/14/2023 12:06:01.340,1.105,0.219,-0.031
4/14/2023 12:06:01.350,1.137,0.25,-0.02
4/14/2023 12:06:01.360,1.184,0.273,-0.004
4/14/2023 12:06:01.370,1.223,0.281,-0.004
4/14/2023 12:06:01.380,1.254,0.273,-0.004
4/14/2023 12:06:01.390,1.262,0.262,0
4/14/2023 12:06:01.400,1.258,0.266,0
4/14/2023 12:06:01.410,1.238,0.262,-0.008
4/14/2023 12:06:01.420,1.227,0.246,-0.023
4/14/2023 12:06:01.430,1.227,0.238,-0.043
4/14/2023 12:06:01.440,1.211,0.238,-0.063
4/14/2023 12:06:01.450,1.188,0.238,-0.09
4/14/2023 12:06:01.460,1.164,0.266,-0.109
4/14/2023 12:06:01.470,1.133,0.301,-0.121
4/14/2023 12:06:01.480,1.105,0.34,-0.133
4/14/2023 12:06:01.490,1.086,0.371,-0.145
4/14/2023 12:06:01.500,1.07,0.406,-0.156
4/14/2023 12:06:01.510,1.078,0.445,-0.164
4/14/2023 12:06:01.520,1.07,0.488,-0.172
4/14/2023 12:06:01.530,1.07,0.535,-0.164
4/14/2023 12:06:01.540,1.07,0.574,-0.156
4/14/2023 12:06:01.550,1.086,0.594,-0.16
4/14/2023 12:06:01.560,1.098,0.609,-0.164
4/14/2023 12:06:01.570,1.105,0.605,-0.172
4/14/2023 12:06:01.580,1.117,0.602,-0.16
4/14/2023 12:06:01.590,1.129,0.598,-0.152
4/14/2023 12:06:01.600,1.137,0.582,-0.145
4/14/2023 12:06:01.610,1.137,0.566,-0.133
4/14/2023 12:06:01.620,1.133,0.563,-0.125
4/14/2023 12:06:01.630,1.129,0.551,-0.117
4/14/2023 12:06:01.640,1.121,0.535,-0.105
4/14/2023 12:06:01.650,1.129,0.539,-0.109
4/14/2023 12:06:01.660,1.156,0.551,-0.109
4/14/2023 12:06:01.670,1.207,0.57,-0.109
4/14/2023 12:06:01.680,1.262,0.594,-0.109
4/14/2023 12:06:01.690,1.281,0.602,-0.098
4/14/2023 12:06:01.700,1.262,0.613,-0.078
4/14/2023 12:06:01.710,1.215,0.609,-0.055
4/14/2023 12:06:01.720,1.18,0.602,-0.047
4/14/2023 12:06:01.730,1.164,0.613,-0.047
4/14/2023 12:06:01.740,1.141,0.625,-0.051
4/14/2023 12:06:01.750,1.09,0.629,-0.055
4/14/2023 12:06:01.760,1.063,0.629,-0.07
4/14/2023 12:06:01.770,1.059,0.621,-0.09
4/14/2023 12:06:01.780,1.066,0.613,-0.094
4/14/2023 12:06:01.790,1.07,0.609,-0.105
4/14/2023 12:06:01.800,1.086,0.605,-0.117
4/14/2023 12:06:01.810,1.102,0.598,-0.141
4/14/2023 12:06:01.820,1.145,0.586,-0.164
4/14/2023 12:06:01.830,1.219,0.563,-0.172
4/14/2023 12:06:01.840,1.281,0.527,-0.176
4/14/2023 12:06:01.850,1.316,0.484,-0.18
4/14/2023 12:06:01.860,1.316,0.453,-0.18
4/14/2023 12:06:01.870,1.301,0.426,-0.18
4/14/2023 12:06:01.880,1.277,0.402,-0.18
4/14/2023 12:06:01.890,1.242,0.371,-0.172
4/14/2023 12:06:01.900,1.207,0.355,-0.164
4/14/2023 12:06:01.910,1.16,0.352,-0.148
4/14/2023 12:06:01.920,1.121,0.336,-0.137
4/14/2023 12:06:01.930,1.086,0.316,-0.125
4/14/2023 12:06:01.940,1.074,0.305,-0.117
4/14/2023 12:06:01.950,1.07,0.285,-0.113
4/14/2023 12:06:01.960,1.07,0.266,-0.113
4/14/2023 12:06:01.970,1.078,0.246,-0.113
4/14/2023 12:06:01.980,1.078,0.238,-0.113
4/14/2023 12:06:01.990,1.07,0.219,-0.113
4/14/2023 12:06:02.000,1.051,0.199,-0.125
4/14/2023 12:06:02.010,1.059,0.188,-0.137
4/14/2023 12:06:02.020,1.063,0.172,-0.148
4/14/2023 12:06:02.030,1.07,0.168,-0.152
4/14/2023 12:06:02.040,1.086,0.152,-0.16
4/14/2023 12:06:02.050,1.09,0.137,-0.172
4/14/2023 12:06:02.060,1.094,0.129,-0.184
4/14/2023 12:06:02.070,1.109,0.125,-0.199
4/14/2023 12:06:02.080,1.129,0.125,-0.207
4/14/2023 12:06:02.090,1.145,0.121,-0.215
4/14/2023 12:06:02.100,1.168,0.113,-0.215
4/14/2023 12:06:02.110,1.188,0.105,-0.215
4/14/2023 12:06:02.120,1.18,0.094,-0.215
4/14/2023 12:06:02.130,1.152,0.063,-0.211
4/14/2023 12:06:02.140,1.109,0.023,-0.211
4/14/2023 12:06:02.150,1.043,-0.008,-0.199
4/14/2023 12:06:02.160,0.973,-0.039,-0.184
4/14/2023 12:06:02.170,0.918,-0.059,-0.145
4/14/2023 12:06:02.180,0.906,-0.074,-0.105
4/14/2023 12:06:02.190,0.941,-0.07,-0.082
4/14/2023 12:06:02.200,0.973,-0.063,-0.078
4/14/2023 12:06:02.210,0.957,-0.043,-0.082
4/14/2023 12:06:02.220,0.914,-0.023,-0.082
4/14/2023 12:06:02.230,0.863,-0.008,-0.074
4/14/2023 12:06:02.240,0.848,0.02,-0.059
4/14/2023 12:06:02.250,0.883,0.051,-0.047
4/14/2023 12:06:02.260,0.934,0.102,-0.043
4/14/2023 12:06:02.270,0.961,0.156,-0.027
4/14/2023 12:06:02.280,0.965,0.18,-0.004
4/14/2023 12:06:02.290,0.98,0.191,0.027
4/14/2023 12:06:02.300,1.031,0.199,0.055
4/14/2023 12:06:02.310,1.109,0.195,0.07
4/14/2023 12:06:02.320,1.184,0.176,0.082
4/14/2023 12:06:02.330,1.234,0.148,0.082
4/14/2023 12:06:02.340,1.25,0.121,0.074
4/14/2023 12:06:02.350,1.246,0.098,0.07
4/14/2023 12:06:02.360,1.23,0.09,0.082
4/14/2023 12:06:02.370,1.199,0.086,0.105
4/14/2023 12:06:02.380,1.156,0.09,0.133
4/14/2023 12:06:02.390,1.102,0.102,0.156
4/14/2023 12:06:02.400,1.055,0.125,0.156
4/14/2023 12:06:02.410,1.016,0.156,0.137
4/14/2023 12:06:02.420,0.992,0.199,0.102
4/14/2023 12:06:02.430,0.98,0.242,0.07
4/14/2023 12:06:02.440,0.98,0.27,0.035
4/14/2023 12:06:02.450,0.988,0.285,-0.004
4/14/2023 12:06:02.460,1.008,0.297,-0.035
4/14/2023 12:06:02.470,1.039,0.309,-0.059
4/14/2023 12:06:02.480,1.055,0.34,-0.078
4/14/2023 12:06:02.490,1.074,0.375,-0.09
4/14/2023 12:06:02.500,1.074,0.418,-0.094
4/14/2023 12:06:02.510,1.086,0.445,-0.086
4/14/2023 12:06:02.520,1.086,0.469,-0.07
4/14/2023 12:06:02.530,1.078,0.484,-0.051
4/14/2023 12:06:02.540,1.059,0.5,-0.031
4/14/2023 12:06:02.550,1.035,0.512,-0.012
4/14/2023 12:06:02.560,1.02,0.516,0.004
4/14/2023 12:06:02.570,1.027,0.516,0.012
4/14/2023 12:06:02.580,1.051,0.5,0.008
4/14/2023 12:06:02.590,1.09,0.488,0.004
4/14/2023 12:06:02.600,1.125,0.461,0
4/14/2023 12:06:02.610,1.152,0.441,-0.008
4/14/2023 12:06:02.620,1.164,0.438,-0.027
4/14/2023 12:06:02.630,1.191,0.453,-0.055
4/14/2023 12:06:02.640,1.223,0.473,-0.082
4/14/2023 12:06:02.650,1.238,0.504,-0.098
4/14/2023 12:06:02.660,1.23,0.551,-0.121
4/14/2023 12:06:02.670,1.227,0.59,-0.137
4/14/2023 12:06:02.680,1.281,0.629,-0.145
4/14/2023 12:06:02.690,1.348,0.688,-0.129
4/14/2023 12:06:02.700,1.344,0.746,-0.094
4/14/2023 12:06:02.710,1.266,0.793,-0.055
4/14/2023 12:06:02.720,1.16,0.828,-0.027
4/14/2023 12:06:02.730,1.109,0.859,-0.012
4/14/2023 12:06:02.740,1.109,0.867,-0.004
4/14/2023 12:06:02.750,1.145,0.855,-0.008
4/14/2023 12:06:02.760,1.164,0.813,-0.023
4/14/2023 12:06:02.770,1.172,0.73,-0.051
4/14/2023 12:06:02.780,1.16,0.645,-0.09
4/14/2023 12:06:02.790,1.199,0.539,-0.113
4/14/2023 12:06:02.800,1.301,0.449,-0.164
4/14/2023 12:06:02.810,1.426,0.391,-0.184
4/14/2023 12:06:02.820,1.5,0.336,-0.203
4/14/2023 12:06:02.830,1.504,0.297,-0.191
4/14/2023 12:06:02.840,1.465,0.266,-0.168
4/14/2023 12:06:02.850,1.418,0.25,-0.137
4/14/2023 12:06:02.860,1.367,0.227,-0.105
4/14/2023 12:06:02.870,1.297,0.219,-0.082
4/14/2023 12:06:02.880,1.203,0.234,-0.055
4/14/2023 12:06:02.890,1.109,0.266,-0.027
4/14/2023 12:06:02.900,1.027,0.285,-0.016
4/14/2023 12:06:02.910,0.977,0.309,-0.012
4/14/2023 12:06:02.920,0.938,0.336,-0.016
4/14/2023 12:06:02.930,0.922,0.367,-0.027
4/14/2023 12:06:02.940,0.91,0.395,-0.039
4/14/2023 12:06:02.950,0.906,0.406,-0.051
4/14/2023 12:06:02.960,0.918,0.406,-0.059
4/14/2023 12:06:02.970,0.941,0.395,-0.07
4/14/2023 12:06:02.980,0.965,0.379,-0.078
4/14/2023 12:06:02.990,0.984,0.352,-0.082
4/14/2023 12:06:03.000,1,0.305,-0.086
4/14/2023 12:06:03.010,1.031,0.258,-0.09
4/14/2023 12:06:03.020,1.059,0.23,-0.102
4/14/2023 12:06:03.030,1.078,0.203,-0.105
4/14/2023 12:06:03.040,1.094,0.176,-0.105
4/14/2023 12:06:03.050,1.117,0.145,-0.109
4/14/2023 12:06:03.060,1.152,0.113,-0.117
4/14/2023 12:06:03.070,1.184,0.074,-0.129
4/14/2023 12:06:03.080,1.199,0.016,-0.148
4/14/2023 12:06:03.090,1.203,-0.063,-0.16
4/14/2023 12:06:03.100,1.191,-0.129,-0.16
4/14/2023 12:06:03.110,1.141,-0.176,-0.16
4/14/2023 12:06:03.120,1.051,-0.195,-0.156
4/14/2023 12:06:03.130,0.941,-0.207,-0.137
4/14/2023 12:06:03.140,0.816,-0.211,-0.121
4/14/2023 12:06:03.150,0.707,-0.188,-0.09
4/14/2023 12:06:03.160,0.633,-0.133,-0.074
4/14/2023 12:06:03.170,0.645,-0.066,-0.078
4/14/2023 12:06:03.180,0.73,-0.012,-0.109
4/14/2023 12:06:03.190,0.848,0.027,-0.156
4/14/2023 12:06:03.200,0.945,0.063,-0.207
4/14/2023 12:06:03.210,0.992,0.09,-0.277
4/14/2023 12:06:03.220,1.016,0.098,-0.34
4/14/2023 12:06:03.230,1.082,0.09,-0.387
4/14/2023 12:06:03.240,1.188,0.082,-0.41
4/14/2023 12:06:03.250,1.285,0.082,-0.398
4/14/2023 12:06:03.260,1.32,0.082,-0.367
4/14/2023 12:06:03.270,1.297,0.078,-0.301
4/14/2023 12:06:03.280,1.266,0.063,-0.227
4/14/2023 12:06:03.290,1.262,0.031,-0.148
4/14/2023 12:06:03.300,1.293,-0.02,-0.086
4/14/2023 12:06:03.310,1.316,-0.082,-0.043
4/14/2023 12:06:03.320,1.289,-0.125,-0.035
4/14/2023 12:06:03.330,1.219,-0.137,-0.055
4/14/2023 12:06:03.340,1.141,-0.117,-0.082
4/14/2023 12:06:03.350,1.086,-0.074,-0.102
4/14/2023 12:06:03.360,1.039,-0.027,-0.086
4/14/2023 12:06:03.370,0.984,0.008,-0.047
4/14/2023 12:06:03.380,0.922,0.027,-0.004
4/14/2023 12:06:03.390,0.863,0.051,0.027
4/14/2023 12:06:03.400,0.832,0.082,0.027
4/14/2023 12:06:03.410,0.82,0.129,0.016
4/14/2023 12:06:03.420,0.848,0.188,0.027
4/14/2023 12:06:03.430,0.879,0.246,0.051
4/14/2023 12:06:03.440,0.898,0.293,0.063
4/14/2023 12:06:03.450,0.926,0.328,0.055
4/14/2023 12:06:03.460,0.977,0.328,0.039
4/14/2023 12:06:03.470,1.051,0.316,0.016
4/14/2023 12:06:03.480,1.125,0.313,0.02
4/14/2023 12:06:03.490,1.172,0.309,0.039
4/14/2023 12:06:03.500,1.188,0.316,0.066
4/14/2023 12:06:03.510,1.211,0.313,0.086
4/14/2023 12:06:03.520,1.238,0.313,0.078
4/14/2023 12:06:03.530,1.254,0.313,0.07
4/14/2023 12:06:03.540,1.273,0.324,0.063
4/14/2023 12:06:03.550,1.289,0.355,0.051
4/14/2023 12:06:03.560,1.316,0.406,0.059
4/14/2023 12:06:03.570,1.332,0.465,0.066
4/14/2023 12:06:03.580,1.355,0.535,0.066
4/14/2023 12:06:03.590,1.363,0.609,0.066
4/14/2023 12:06:03.600,1.352,0.684,0.059
4/14/2023 12:06:03.610,1.328,0.73,0.047
4/14/2023 12:06:03.620,1.313,0.727,0.031
4/14/2023 12:06:03.630,1.316,0.668,-0.016
4/14/2023 12:06:03.640,1.328,0.582,-0.063
4/14/2023 12:06:03.650,1.336,0.477,-0.121
4/14/2023 12:06:03.660,1.359,0.406,-0.168
4/14/2023 12:06:03.670,1.387,0.379,-0.164
4/14/2023 12:06:03.680,1.488,0.352,-0.148
4/14/2023 12:06:03.690,1.5,0.359,-0.109
4/14/2023 12:06:03.700,1.371,0.367,-0.082
4/14/2023 12:06:03.710,1.211,0.375,-0.07
4/14/2023 12:06:03.720,1.129,0.426,-0.078
4/14/2023 12:06:03.730,1.125,0.5,-0.098
4/14/2023 12:06:03.740,1.16,0.555,-0.121
4/14/2023 12:06:03.750,1.172,0.578,-0.137
4/14/2023 12:06:03.760,1.16,0.586,-0.152
4/14/2023 12:06:03.770,1.141,0.578,-0.172
4/14/2023 12:06:03.780,1.133,0.555,-0.211
4/14/2023 12:06:03.790,1.148,0.527,-0.25
4/14/2023 12:06:03.800,1.195,0.492,-0.289
4/14/2023 12:06:03.810,1.254,0.461,-0.32
4/14/2023 12:06:03.820,1.305,0.418,-0.332
4/14/2023 12:06:03.830,1.309,0.375,-0.324
4/14/2023 12:06:03.840,1.289,0.344,-0.301
4/14/2023 12:06:03.850,1.242,0.309,-0.258
4/14/2023 12:06:03.860,1.188,0.277,-0.215
4/14/2023 12:06:03.870,1.129,0.266,-0.172
4/14/2023 12:06:03.880,1.063,0.242,-0.137
4/14/2023 12:06:03.890,1.016,0.234,-0.117
4/14/2023 12:06:03.900,0.984,0.246,-0.113
4/14/2023 12:06:03.910,0.973,0.258,-0.121
4/14/2023 12:06:03.920,0.977,0.27,-0.137
4/14/2023 12:06:03.930,0.984,0.273,-0.145
4/14/2023 12:06:03.940,0.992,0.27,-0.156
4/14/2023 12:06:03.950,1.012,0.27,-0.168
4/14/2023 12:06:03.960,1.027,0.277,-0.172
4/14/2023 12:06:03.970,1.051,0.277,-0.164
4/14/2023 12:06:03.980,1.07,0.27,-0.168
4/14/2023 12:06:03.990,1.086,0.242,-0.168
4/14/2023 12:06:04.000,1.094,0.219,-0.172
4/14/2023 12:06:04.010,1.109,0.18,-0.164
4/14/2023 12:06:04.020,1.117,0.145,-0.164
4/14/2023 12:06:04.030,1.105,0.121,-0.152
4/14/2023 12:06:04.040,1.098,0.098,-0.148
4/14/2023 12:06:04.050,1.09,0.09,-0.145
4/14/2023 12:06:04.060,1.086,0.082,-0.148
4/14/2023 12:06:04.070,1.082,0.063,-0.145
4/14/2023 12:06:04.080,1.09,0.055,-0.145
4/14/2023 12:06:04.090,1.094,0.051,-0.141
4/14/2023 12:06:04.100,1.086,0.059,-0.121
4/14/2023 12:06:04.110,1.063,0.07,-0.117
4/14/2023 12:06:04.120,1.031,0.078,-0.125
4/14/2023 12:06:04.130,0.992,0.074,-0.137
4/14/2023 12:06:04.140,0.953,0.059,-0.133
4/14/2023 12:06:04.150,0.922,0.039,-0.121
4/14/2023 12:06:04.160,0.914,0.02,-0.094
4/14/2023 12:06:04.170,0.918,0.012,-0.066
4/14/2023 12:06:04.180,0.895,0.02,-0.047
4/14/2023 12:06:04.190,0.844,0.039,-0.035
4/14/2023 12:06:04.200,0.773,0.047,-0.02
4/14/2023 12:06:04.210,0.707,0.059,0.012
4/14/2023 12:06:04.220,0.684,0.07,0.047
4/14/2023 12:06:04.230,0.715,0.094,0.09
4/14/2023 12:06:04.240,0.785,0.129,0.117
4/14/2023 12:06:04.250,0.875,0.168,0.133
4/14/2023 12:06:04.260,0.961,0.172,0.141
4/14/2023 12:06:04.270,1.035,0.145,0.133
4/14/2023 12:06:04.280,1.121,0.098,0.113
4/14/2023 12:06:04.290,1.215,0.055,0.074
4/14/2023 12:06:04.300,1.289,0.023,0.043
4/14/2023 12:06:04.310,1.336,-0.004,0.016
4/14/2023 12:06:04.320,1.336,-0.012,-0.016
4/14/2023 12:06:04.330,1.305,-0.004,-0.031
4/14/2023 12:06:04.340,1.27,0.008,-0.031
4/14/2023 12:06:04.350,1.227,0.031,-0.027
4/14/2023 12:06:04.360,1.176,0.074,-0.008
4/14/2023 12:06:04.370,1.145,0.105,0.008
4/14/2023 12:06:04.380,1.117,0.145,0.016
4/14/2023 12:06:04.390,1.09,0.199,0.016
4/14/2023 12:06:04.400,1.066,0.254,0.004
4/14/2023 12:06:04.410,1.043,0.313,-0.02
4/14/2023 12:06:04.420,1.023,0.367,-0.055
4/14/2023 12:06:04.430,1.016,0.402,-0.094
4/14/2023 12:06:04.440,1.012,0.43,-0.125
4/14/2023 12:06:04.450,1.016,0.441,-0.152
4/14/2023 12:06:04.460,1.031,0.438,-0.152
4/14/2023 12:06:04.470,1.043,0.434,-0.148
4/14/2023 12:06:04.480,1.043,0.434,-0.137
4/14/2023 12:06:04.490,1.039,0.422,-0.129
4/14/2023 12:06:04.500,1.035,0.402,-0.113
4/14/2023 12:06:04.510,1.043,0.387,-0.086
4/14/2023 12:06:04.520,1.035,0.383,-0.055
4/14/2023 12:06:04.530,1.016,0.395,-0.02
4/14/2023 12:06:04.540,1,0.414,0.008
4/14/2023 12:06:04.550,1.008,0.438,0.016
4/14/2023 12:06:04.560,1.043,0.449,0.012
4/14/2023 12:06:04.570,1.098,0.465,-0.004
4/14/2023 12:06:04.580,1.16,0.477,-0.02
4/14/2023 12:06:04.590,1.215,0.484,-0.035
4/14/2023 12:06:04.600,1.25,0.488,-0.047
4/14/2023 12:06:04.610,1.277,0.496,-0.063
4/14/2023 12:06:04.620,1.297,0.512,-0.074
4/14/2023 12:06:04.630,1.316,0.523,-0.082
4/14/2023 12:06:04.640,1.348,0.539,-0.082
4/14/2023 12:06:04.650,1.387,0.555,-0.086
4/14/2023 12:06:04.660,1.438,0.574,-0.074
4/14/2023 12:06:04.670,1.473,0.594,-0.043
4/14/2023 12:06:04.680,1.473,0.613,-0.012
4/14/2023 12:06:04.690,1.426,0.625,0.016
4/14/2023 12:06:04.700,1.359,0.625,0.035
4/14/2023 12:06:04.710,1.293,0.609,0.031
4/14/2023 12:06:04.720,1.242,0.574,0.02
4/14/2023 12:06:04.730,1.203,0.523,0.012
4/14/2023 12:06:04.740,1.18,0.469,0.004
4/14/2023 12:06:04.750,1.152,0.426,0
4/14/2023 12:06:04.760,1.133,0.398,-0.012
4/14/2023 12:06:04.770,1.133,0.383,-0.035
4/14/2023 12:06:04.780,1.18,0.379,-0.066
4/14/2023 12:06:04.790,1.246,0.371,-0.098
4/14/2023 12:06:04.800,1.309,0.367,-0.113
4/14/2023 12:06:04.810,1.328,0.359,-0.129
4/14/2023 12:06:04.820,1.289,0.348,-0.137
4/14/2023 12:06:04.830,1.234,0.34,-0.145
4/14/2023 12:06:04.840,1.188,0.344,-0.152
4/14/2023 12:06:04.850,1.156,0.34,-0.152
4/14/2023 12:06:04.860,1.125,0.332,-0.148
4/14/2023 12:06:04.870,1.082,0.32,-0.137
4/14/2023 12:06:04.880,1.043,0.309,-0.125
4/14/2023 12:06:04.890,1.012,0.289,-0.117
4/14/2023 12:06:04.900,0.996,0.281,-0.105
4/14/2023 12:06:04.910,0.98,0.27,-0.105
4/14/2023 12:06:04.920,0.977,0.258,-0.109
4/14/2023 12:06:04.930,0.977,0.254,-0.113
4/14/2023 12:06:04.940,0.988,0.25,-0.125
4/14/2023 12:06:04.950,1.008,0.246,-0.141
4/14/2023 12:06:04.960,1.023,0.227,-0.156
4/14/2023 12:06:04.970,1.031,0.211,-0.172
4/14/2023 12:06:04.980,1.035,0.199,-0.188
4/14/2023 12:06:04.990,1.047,0.191,-0.191
4/14/2023 12:06:05.000,1.051,0.184,-0.203
4/14/2023 12:06:05.010,1.063,0.168,-0.207
4/14/2023 12:06:05.020,1.066,0.156,-0.207
4/14/2023 12:06:05.030,1.055,0.133,-0.215
4/14/2023 12:06:05.040,1.035,0.09,-0.223
4/14/2023 12:06:05.050,0.996,0.02,-0.227
4/14/2023 12:06:05.060,0.949,-0.059,-0.223
4/14/2023 12:06:05.070,0.914,-0.129,-0.215
4/14/2023 12:06:05.080,0.906,-0.148,-0.191
4/14/2023 12:06:05.090,0.895,-0.133,-0.176
4/14/2023 12:06:05.100,0.875,-0.105,-0.164
4/14/2023 12:06:05.110,0.863,-0.078,-0.16
4/14/2023 12:06:05.120,0.863,-0.051,-0.16
4/14/2023 12:06:05.130,0.898,-0.035,-0.16
4/14/2023 12:06:05.140,0.957,-0.023,-0.16
4/14/2023 12:06:05.150,1,-0.012,-0.152
4/14/2023 12:06:05.160,1.016,0.008,-0.156
4/14/2023 12:06:05.170,0.988,0.023,-0.148
4/14/2023 12:06:05.180,0.953,0.035,-0.129
4/14/2023 12:06:05.190,0.953,0.055,-0.105
4/14/2023 12:06:05.200,0.996,0.105,-0.086
4/14/2023 12:06:05.210,1.063,0.172,-0.059
4/14/2023 12:06:05.220,1.102,0.207,-0.035
4/14/2023 12:06:05.230,1.125,0.219,-0.016
4/14/2023 12:06:05.240,1.16,0.223,0.004
4/14/2023 12:06:05.250,1.207,0.211,0.016
4/14/2023 12:06:05.260,1.242,0.195,0.031
4/14/2023 12:06:05.270,1.277,0.168,0.059
4/14/2023 12:06:05.280,1.289,0.145,0.07
4/14/2023 12:06:05.290,1.285,0.113,0.078
4/14/2023 12:06:05.300,1.27,0.09,0.074
4/14/2023 12:06:05.310,1.242,0.063,0.066
4/14/2023 12:06:05.320,1.203,0.031,0.066
4/14/2023 12:06:05.330,1.16,0.02,0.074
4/14/2023 12:06:05.340,1.121,0.016,0.078
4/14/2023 12:06:05.350,1.094,0.043,0.078
4/14/2023 12:06:05.360,1.066,0.078,0.074
4/14/2023 12:06:05.370,1.039,0.109,0.059
4/14/2023 12:06:05.380,1.023,0.137,0.031
4/14/2023 12:06:05.390,1.023,0.172,-0.004
4/14/2023 12:06:05.400,1.023,0.203,-0.027
4/14/2023 12:06:05.410,1.023,0.238,-0.059
4/14/2023 12:06:05.420,1.004,0.273,-0.074
4/14/2023 12:06:05.430,0.996,0.309,-0.082
4/14/2023 12:06:05.440,0.988,0.352,-0.086
4/14/2023 12:06:05.450,0.977,0.387,-0.078
4/14/2023 12:06:05.460,0.957,0.414,-0.07
4/14/2023 12:06:05.470,0.941,0.438,-0.059
4/14/2023 12:06:05.480,0.934,0.461,-0.047
4/14/2023 12:06:05.490,0.934,0.473,-0.031
4/14/2023 12:06:05.500,0.918,0.484,-0.016
4/14/2023 12:06:05.510,0.918,0.488,0.008
4/14/2023 12:06:05.520,0.922,0.492,0.016
4/14/2023 12:06:05.530,0.945,0.488,0.016
4/14/2023 12:06:05.540,0.977,0.496,0.016
4/14/2023 12:06:05.550,1.023,0.504,0.008
4/14/2023 12:06:05.560,1.066,0.512,-0.004
4/14/2023 12:06:05.570,1.098,0.52,-0.02
4/14/2023 12:06:05.580,1.129,0.535,-0.047
4/14/2023 12:06:05.590,1.156,0.551,-0.063
4/14/2023 12:06:05.600,1.18,0.574,-0.078
4/14/2023 12:06:05.610,1.191,0.598,-0.09
4/14/2023 12:06:05.620,1.184,0.613,-0.102
4/14/2023 12:06:05.630,1.152,0.613,-0.109
4/14/2023 12:06:05.640,1.148,0.613,-0.141
4/14/2023 12:06:05.650,1.23,0.621,-0.164
4/14/2023 12:06:05.660,1.355,0.637,-0.16
4/14/2023 12:06:05.670,1.441,0.637,-0.133
4/14/2023 12:06:05.680,1.441,0.645,-0.102
4/14/2023 12:06:05.690,1.402,0.652,-0.074
4/14/2023 12:06:05.700,1.383,0.66,-0.07
4/14/2023 12:06:05.710,1.395,0.652,-0.082
4/14/2023 12:06:05.720,1.398,0.637,-0.109
4/14/2023 12:06:05.730,1.367,0.613,-0.133
4/14/2023 12:06:05.740,1.332,0.586,-0.148
4/14/2023 12:06:05.750,1.313,0.555,-0.16
4/14/2023 12:06:05.760,1.328,0.527,-0.191
4/14/2023 12:06:05.770,1.367,0.496,-0.215
4/14/2023 12:06:05.780,1.414,0.473,-0.227
4/14/2023 12:06:05.790,1.453,0.445,-0.242
4/14/2023 12:06:05.800,1.469,0.426,-0.246
4/14/2023 12:06:05.810,1.461,0.402,-0.234
4/14/2023 12:06:05.820,1.418,0.387,-0.219
4/14/2023 12:06:05.830,1.348,0.375,-0.188
4/14/2023 12:06:05.840,1.25,0.363,-0.16
4/14/2023 12:06:05.850,1.156,0.352,-0.133
4/14/2023 12:06:05.860,1.074,0.344,-0.117
4/14/2023 12:06:05.870,1.016,0.332,-0.117
4/14/2023 12:06:05.880,0.988,0.32,-0.117
4/14/2023 12:06:05.890,0.992,0.313,-0.129
4/14/2023 12:06:05.900,1.012,0.289,-0.141
4/14/2023 12:06:05.910,1.031,0.262,-0.145
4/14/2023 12:06:05.920,1.039,0.23,-0.145
4/14/2023 12:06:05.930,1.035,0.203,-0.145
4/14/2023 12:06:05.940,1.027,0.184,-0.141
4/14/2023 12:06:05.950,1.016,0.164,-0.137
4/14/2023 12:06:05.960,1,0.148,-0.129
4/14/2023 12:06:05.970,0.984,0.145,-0.125
4/14/2023 12:06:05.980,0.988,0.137,-0.129
4/14/2023 12:06:05.990,1,0.137,-0.141
4/14/2023 12:06:06.000,1.012,0.125,-0.156
4/14/2023 12:06:06.010,1.039,0.121,-0.176
4/14/2023 12:06:06.020,1.059,0.113,-0.191
4/14/2023 12:06:06.030,1.063,0.09,-0.215
4/14/2023 12:06:06.040,1.047,0.063,-0.23
4/14/2023 12:06:06.050,1.012,0.027,-0.246
4/14/2023 12:06:06.060,0.965,-0.027,-0.258
4/14/2023 12:06:06.070,0.93,-0.094,-0.27
4/14/2023 12:06:06.080,0.891,-0.156,-0.281
4/14/2023 12:06:06.090,0.875,-0.188,-0.285
4/14/2023 12:06:06.100,0.855,-0.191,-0.289
4/14/2023 12:06:06.110,0.848,-0.145,-0.285
4/14/2023 12:06:06.120,0.836,-0.078,-0.281
4/14/2023 12:06:06.130,0.805,-0.012,-0.254
4/14/2023 12:06:06.140,0.762,0.055,-0.215
4/14/2023 12:06:06.150,0.719,0.109,-0.164
4/14/2023 12:06:06.160,0.723,0.156,-0.102
4/14/2023 12:06:06.170,0.773,0.203,-0.051
4/14/2023 12:06:06.180,0.844,0.242,-0.02
4/14/2023 12:06:06.190,0.871,0.258,0.004
4/14/2023 12:06:06.200,0.887,0.273,0.02
4/14/2023 12:06:06.210,0.914,0.277,0.031
4/14/2023 12:06:06.220,0.965,0.25,0.035
4/14/2023 12:06:06.230,1.059,0.199,0.035
4/14/2023 12:06:06.240,1.176,0.121,0.031
4/14/2023 12:06:06.250,1.281,0.039,0.055
4/14/2023 12:06:06.260,1.336,-0.02,0.09
4/14/2023 12:06:06.270,1.355,-0.063,0.129
4/14/2023 12:06:06.280,1.383,-0.098,0.145
4/14/2023 12:06:06.290,1.445,-0.125,0.141
4/14/2023 12:06:06.300,1.531,-0.156,0.125
4/14/2023 12:06:06.310,1.602,-0.164,0.098
4/14/2023 12:06:06.320,1.621,-0.137,0.055
4/14/2023 12:06:06.330,1.605,-0.074,0.008
4/14/2023 12:06:06.340,1.57,-0.008,-0.02
4/14/2023 12:06:06.350,1.504,0.047,-0.027
4/14/2023 12:06:06.360,1.426,0.09,-0.012
4/14/2023 12:06:06.370,1.32,0.141,0.004
4/14/2023 12:06:06.380,1.223,0.199,0.027
4/14/2023 12:06:06.390,1.141,0.254,0.031
4/14/2023 12:06:06.400,1.074,0.297,0.031
4/14/2023 12:06:06.410,1.035,0.328,0.02
4/14/2023 12:06:06.420,1.012,0.344,0
4/14/2023 12:06:06.430,1,0.352,-0.023
4/14/2023 12:06:06.440,0.992,0.352,-0.051
4/14/2023 12:06:06.450,0.98,0.359,-0.082
4/14/2023 12:06:06.460,0.977,0.363,-0.098
4/14/2023 12:06:06.470,0.969,0.367,-0.113
4/14/2023 12:06:06.480,0.961,0.371,-0.117
4/14/2023 12:06:06.490,0.945,0.375,-0.113
4/14/2023 12:06:06.500,0.91,0.387,-0.098
4/14/2023 12:06:06.510,0.895,0.398,-0.074
4/14/2023 12:06:06.520,0.871,0.406,-0.059
4/14/2023 12:06:06.530,0.871,0.418,-0.031
4/14/2023 12:06:06.540,0.887,0.422,-0.016
4/14/2023 12:06:06.550,0.914,0.422,-0.008
4/14/2023 12:06:06.560,0.941,0.422,-0.008
4/14/2023 12:06:06.570,0.977,0.43,-0.012
4/14/2023 12:06:06.580,1.012,0.441,-0.023
4/14/2023 12:06:06.590,1.051,0.449,-0.043
4/14/2023 12:06:06.600,1.086,0.469,-0.055
4/14/2023 12:06:06.610,1.113,0.496,-0.078
4/14/2023 12:06:06.620,1.137,0.523,-0.082
4/14/2023 12:06:06.630,1.145,0.547,-0.082
4/14/2023 12:06:06.640,1.129,0.574,-0.074
4/14/2023 12:06:06.650,1.102,0.59,-0.07
4/14/2023 12:06:06.660,1.078,0.594,-0.074
4/14/2023 12:06:06.670,1.117,0.613,-0.098
4/14/2023 12:06:06.680,1.223,0.633,-0.109
4/14/2023 12:06:06.690,1.328,0.645,-0.082
4/14/2023 12:06:06.700,1.344,0.652,-0.043
4/14/2023 12:06:06.710,1.273,0.664,0.004
4/14/2023 12:06:06.720,1.203,0.684,0.035
4/14/2023 12:06:06.730,1.195,0.691,0.035
4/14/2023 12:06:06.740,1.246,0.68,0.023
4/14/2023 12:06:06.750,1.305,0.652,0.004
4/14/2023 12:06:06.760,1.332,0.594,-0.023
4/14/2023 12:06:06.770,1.352,0.52,-0.051
4/14/2023 12:06:06.780,1.379,0.434,-0.082
4/14/2023 12:06:06.790,1.43,0.328,-0.117
4/14/2023 12:06:06.800,1.484,0.219,-0.164
4/14/2023 12:06:06.810,1.523,0.137,-0.195
4/14/2023 12:06:06.820,1.531,0.098,-0.211
4/14/2023 12:06:06.830,1.512,0.094,-0.188
4/14/2023 12:06:06.840,1.457,0.125,-0.16
4/14/2023 12:06:06.850,1.395,0.199,-0.129
4/14/2023 12:06:06.860,1.32,0.289,-0.117
4/14/2023 12:06:06.870,1.246,0.383,-0.113
4/14/2023 12:06:06.880,1.184,0.465,-0.109
4/14/2023 12:06:06.890,1.156,0.527,-0.117
4/14/2023 12:06:06.900,1.164,0.57,-0.133
4/14/2023 12:06:06.910,1.207,0.586,-0.16
4/14/2023 12:06:06.920,1.246,0.566,-0.191
4/14/2023 12:06:06.930,1.273,0.527,-0.223
4/14/2023 12:06:06.940,1.285,0.484,-0.246
4/14/2023 12:06:06.950,1.281,0.418,-0.234
4/14/2023 12:06:06.960,1.27,0.344,-0.211
4/14/2023 12:06:06.970,1.246,0.273,-0.184
4/14/2023 12:06:06.980,1.211,0.23,-0.156
4/14/2023 12:06:06.990,1.176,0.188,-0.129
4/14/2023 12:06:07.000,1.113,0.133,-0.109
4/14/2023 12:06:07.010,1.063,0.082,-0.082
4/14/2023 12:06:07.020,1.012,0.043,-0.051
4/14/2023 12:06:07.030,0.957,0.023,-0.027
4/14/2023 12:06:07.040,0.91,0.008,-0.012
4/14/2023 12:06:07.050,0.867,-0.008,-0.008
4/14/2023 12:06:07.060,0.836,-0.016,-0.004
4/14/2023 12:06:07.070,0.813,-0.02,-0.004
4/14/2023 12:06:07.080,0.789,-0.02,-0.012
4/14/2023 12:06:07.090,0.773,-0.008,-0.027
4/14/2023 12:06:07.100,0.773,0.008,-0.043
4/14/2023 12:06:07.110,0.789,0.023,-0.051
4/14/2023 12:06:07.120,0.809,0.027,-0.063
4/14/2023 12:06:07.130,0.828,0.035,-0.066
4/14/2023 12:06:07.140,0.836,0.055,-0.074
4/14/2023 12:06:07.150,0.828,0.078,-0.09
4/14/2023 12:06:07.160,0.816,0.098,-0.102
4/14/2023 12:06:07.170,0.801,0.105,-0.109
4/14/2023 12:06:07.180,0.781,0.105,-0.105
4/14/2023 12:06:07.190,0.766,0.102,-0.094
4/14/2023 12:06:07.200,0.785,0.094,-0.082
4/14/2023 12:06:07.210,0.836,0.082,-0.074
4/14/2023 12:06:07.220,0.867,0.078,-0.074
4/14/2023 12:06:07.230,0.859,0.086,-0.074
4/14/2023 12:06:07.240,0.828,0.082,-0.066
4/14/2023 12:06:07.250,0.805,0.07,-0.051
4/14/2023 12:06:07.260,0.82,0.082,-0.027
4/14/2023 12:06:07.270,0.859,0.102,-0.016
4/14/2023 12:06:07.280,0.91,0.133,-0.008
4/14/2023 12:06:07.290,0.977,0.168,0
4/14/2023 12:06:07.300,1.055,0.203,0.02
4/14/2023 12:06:07.310,1.148,0.219,0.031
4/14/2023 12:06:07.320,1.262,0.242,0.031
4/14/2023 12:06:07.330,1.375,0.262,0.023
4/14/2023 12:06:07.340,1.496,0.281,-0.004
4/14/2023 12:06:07.350,1.586,0.289,-0.043
4/14/2023 12:06:07.360,1.633,0.297,-0.082
4/14/2023 12:06:07.370,1.641,0.301,-0.109
4/14/2023 12:06:07.380,1.617,0.316,-0.121
4/14/2023 12:06:07.390,1.563,0.328,-0.113
4/14/2023 12:06:07.400,1.484,0.344,-0.074
4/14/2023 12:06:07.410,1.398,0.359,-0.047
4/14/2023 12:06:07.420,1.313,0.375,-0.027
4/14/2023 12:06:07.430,1.227,0.395,-0.027
4/14/2023 12:06:07.440,1.176,0.402,-0.035
4/14/2023 12:06:07.450,1.137,0.418,-0.039
4/14/2023 12:06:07.460,1.098,0.438,-0.043
4/14/2023 12:06:07.470,1.066,0.441,-0.055
4/14/2023 12:06:07.480,1.051,0.438,-0.063
4/14/2023 12:06:07.490,1.055,0.418,-0.078
4/14/2023 12:06:07.500,1.051,0.387,-0.094
4/14/2023 12:06:07.510,1.059,0.359,-0.098
4/14/2023 12:06:07.520,1.051,0.34,-0.094
4/14/2023 12:06:07.530,1.023,0.32,-0.082
4/14/2023 12:06:07.540,0.992,0.316,-0.07
4/14/2023 12:06:07.550,0.953,0.313,-0.051
4/14/2023 12:06:07.560,0.918,0.32,-0.031
4/14/2023 12:06:07.570,0.895,0.328,-0.02
4/14/2023 12:06:07.580,0.887,0.352,-0.008
4/14/2023 12:06:07.590,0.879,0.375,-0.004
4/14/2023 12:06:07.600,0.891,0.406,-0.008
4/14/2023 12:06:07.610,0.922,0.434,-0.027
4/14/2023 12:06:07.620,0.961,0.453,-0.047
4/14/2023 12:06:07.630,1.004,0.477,-0.066
4/14/2023 12:06:07.640,1.047,0.516,-0.082
4/14/2023 12:06:07.650,1.078,0.539,-0.094
4/14/2023 12:06:07.660,1.109,0.566,-0.105
4/14/2023 12:06:07.670,1.145,0.598,-0.113
4/14/2023 12:06:07.680,1.176,0.633,-0.121
4/14/2023 12:06:07.690,1.188,0.652,-0.137
4/14/2023 12:06:07.700,1.219,0.664,-0.156
4/14/2023 12:06:07.710,1.301,0.695,-0.164
4/14/2023 12:06:07.720,1.379,0.723,-0.145
4/14/2023 12:06:07.730,1.375,0.754,-0.098
4/14/2023 12:06:07.740,1.285,0.785,-0.051
4/14/2023 12:06:07.750,1.188,0.813,-0.016
4/14/2023 12:06:07.760,1.145,0.801,-0.008
4/14/2023 12:06:07.770,1.156,0.754,-0.016
4/14/2023 12:06:07.780,1.188,0.672,-0.043
4/14/2023 12:06:07.790,1.219,0.57,-0.082
4/14/2023 12:06:07.800,1.246,0.48,-0.117
4/14/2023 12:06:07.810,1.273,0.402,-0.141
4/14/2023 12:06:07.820,1.293,0.348,-0.152
4/14/2023 12:06:07.830,1.328,0.324,-0.16
4/14/2023 12:06:07.840,1.379,0.34,-0.172
4/14/2023 12:06:07.850,1.441,0.375,-0.176
4/14/2023 12:06:07.860,1.477,0.398,-0.18
4/14/2023 12:06:07.870,1.465,0.414,-0.168
4/14/2023 12:06:07.880,1.426,0.426,-0.148
4/14/2023 12:06:07.890,1.379,0.434,-0.125
4/14/2023 12:06:07.900,1.332,0.441,-0.109
4/14/2023 12:06:07.910,1.301,0.445,-0.098
4/14/2023 12:06:07.920,1.27,0.438,-0.09
4/14/2023 12:06:07.930,1.234,0.426,-0.094
4/14/2023 12:06:07.940,1.215,0.41,-0.105
4/14/2023 12:06:07.950,1.219,0.391,-0.117
4/14/2023 12:06:07.960,1.238,0.367,-0.137
4/14/2023 12:06:07.970,1.258,0.332,-0.148
4/14/2023 12:06:07.980,1.262,0.293,-0.145
4/14/2023 12:06:07.990,1.238,0.254,-0.137
4/14/2023 12:06:08.000,1.203,0.219,-0.133
4/14/2023 12:06:08.010,1.172,0.191,-0.133
4/14/2023 12:06:08.020,1.133,0.164,-0.145
4/14/2023 12:06:08.030,1.105,0.098,-0.152
4/14/2023 12:06:08.040,1.082,0,-0.148
4/14/2023 12:06:08.050,1.023,-0.086,-0.145
4/14/2023 12:06:08.060,0.93,-0.156,-0.129
4/14/2023 12:06:08.070,0.852,-0.215,-0.117
4/14/2023 12:06:08.080,0.793,-0.254,-0.113
4/14/2023 12:06:08.090,0.77,-0.27,-0.113
4/14/2023 12:06:08.100,0.766,-0.246,-0.105
4/14/2023 12:06:08.110,0.766,-0.207,-0.102
4/14/2023 12:06:08.120,0.762,-0.16,-0.105
4/14/2023 12:06:08.130,0.773,-0.125,-0.109
4/14/2023 12:06:08.140,0.801,-0.098,-0.105
4/14/2023 12:06:08.150,0.824,-0.078,-0.109
4/14/2023 12:06:08.160,0.848,-0.059,-0.109
4/14/2023 12:06:08.170,0.859,-0.051,-0.109
4/14/2023 12:06:08.180,0.863,-0.059,-0.109
4/14/2023 12:06:08.190,0.875,-0.063,-0.105
4/14/2023 12:06:08.200,0.898,-0.074,-0.086
4/14/2023 12:06:08.210,0.988,-0.066,-0.074
4/14/2023 12:06:08.220,1.113,-0.059,-0.082
4/14/2023 12:06:08.230,1.191,-0.023,-0.102
4/14/2023 12:06:08.240,1.164,0.016,-0.105
4/14/2023 12:06:08.250,1.113,0.047,-0.094
4/14/2023 12:06:08.260,1.117,0.066,-0.086
4/14/2023 12:06:08.270,1.168,0.09,-0.09
4/14/2023 12:06:08.280,1.23,0.125,-0.078
4/14/2023 12:06:08.290,1.258,0.156,-0.059
4/14/2023 12:06:08.300,1.242,0.195,-0.023
4/14/2023 12:06:08.310,1.227,0.238,0.016
4/14/2023 12:06:08.320,1.223,0.27,0.047
4/14/2023 12:06:08.330,1.238,0.293,0.066
4/14/2023 12:06:08.340,1.266,0.301,0.07
4/14/2023 12:06:08.350,1.305,0.293,0.063
4/14/2023 12:06:08.360,1.328,0.27,0.043
4/14/2023 12:06:08.370,1.34,0.23,0.016
4/14/2023 12:06:08.380,1.352,0.184,-0.004
4/14/2023 12:06:08.390,1.352,0.133,-0.004
4/14/2023 12:06:08.400,1.328,0.09,0.016
4/14/2023 12:06:08.410,1.281,0.074,0.047
4/14/2023 12:06:08.420,1.223,0.086,0.063
4/14/2023 12:06:08.430,1.164,0.121,0.066
4/14/2023 12:06:08.440,1.109,0.176,0.07
4/14/2023 12:06:08.450,1.063,0.219,0.07
4/14/2023 12:06:08.460,1.023,0.246,0.066
4/14/2023 12:06:08.470,0.988,0.262,0.059
4/14/2023 12:06:08.480,0.969,0.293,0.035
4/14/2023 12:06:08.490,0.973,0.332,0.012
4/14/2023 12:06:08.500,0.984,0.359,-0.004
4/14/2023 12:06:08.510,1.016,0.371,-0.008
4/14/2023 12:06:08.520,1.035,0.375,-0.012
4/14/2023 12:06:08.530,1.051,0.391,-0.004
4/14/2023 12:06:08.540,1.066,0.41,0.008
4/14/2023 12:06:08.550,1.086,0.43,0.012
4/14/2023 12:06:08.560,1.098,0.441,0.02
4/14/2023 12:06:08.570,1.105,0.461,0.027
4/14/2023 12:06:08.580,1.117,0.496,0.027
4/14/2023 12:06:08.590,1.121,0.523,0.02
4/14/2023 12:06:08.600,1.121,0.563,0.012
4/14/2023 12:06:08.610,1.133,0.609,-0.008
4/14/2023 12:06:08.620,1.168,0.66,-0.023
4/14/2023 12:06:08.630,1.195,0.707,-0.035
4/14/2023 12:06:08.640,1.203,0.723,-0.055
4/14/2023 12:06:08.650,1.191,0.719,-0.07
4/14/2023 12:06:08.660,1.18,0.695,-0.09
4/14/2023 12:06:08.670,1.18,0.664,-0.113
4/14/2023 12:06:08.680,1.188,0.633,-0.129
4/14/2023 12:06:08.690,1.184,0.582,-0.141
4/14/2023 12:06:08.700,1.188,0.527,-0.148
4/14/2023 12:06:08.710,1.254,0.484,-0.137
4/14/2023 12:06:08.720,1.355,0.461,-0.102
4/14/2023 12:06:08.730,1.395,0.438,-0.043
4/14/2023 12:06:08.740,1.328,0.41,0.027
4/14/2023 12:06:08.750,1.203,0.379,0.094
4/14/2023 12:06:08.760,1.121,0.352,0.129
4/14/2023 12:06:08.770,1.117,0.344,0.137
4/14/2023 12:06:08.780,1.184,0.344,0.129
4/14/2023 12:06:08.790,1.238,0.352,0.102
4/14/2023 12:06:08.800,1.25,0.355,0.07
4/14/2023 12:06:08.810,1.238,0.352,0.023
4/14/2023 12:06:08.820,1.25,0.344,-0.027
4/14/2023 12:06:08.830,1.297,0.34,-0.098
4/14/2023 12:06:08.840,1.375,0.34,-0.164
4/14/2023 12:06:08.850,1.457,0.352,-0.211
4/14/2023 12:06:08.860,1.496,0.355,-0.242
4/14/2023 12:06:08.870,1.496,0.344,-0.258
4/14/2023 12:06:08.880,1.469,0.328,-0.262
4/14/2023 12:06:08.890,1.434,0.316,-0.254
4/14/2023 12:06:08.900,1.391,0.297,-0.238
4/14/2023 12:06:08.910,1.344,0.285,-0.211
4/14/2023 12:06:08.920,1.285,0.273,-0.191
4/14/2023 12:06:08.930,1.211,0.266,-0.172
4/14/2023 12:06:08.940,1.148,0.27,-0.156
4/14/2023 12:06:08.950,1.109,0.27,-0.152
4/14/2023 12:06:08.960,1.086,0.281,-0.156
4/14/2023 12:06:08.970,1.074,0.289,-0.168
4/14/2023 12:06:08.980,1.066,0.301,-0.176
4/14/2023 12:06:08.990,1.066,0.309,-0.184
4/14/2023 12:06:09.000,1.063,0.309,-0.199
4/14/2023 12:06:09.010,1.074,0.289,-0.203
4/14/2023 12:06:09.020,1.07,0.27,-0.219
4/14/2023 12:06:09.030,1.059,0.207,-0.238
4/14/2023 12:06:09.040,1.031,0.105,-0.246
4/14/2023 12:06:09.050,0.984,0,-0.238
4/14/2023 12:06:09.060,0.93,-0.102,-0.223
4/14/2023 12:06:09.070,0.875,-0.184,-0.195
4/14/2023 12:06:09.080,0.828,-0.234,-0.168
4/14/2023 12:06:09.090,0.789,-0.246,-0.148
4/14/2023 12:06:09.100,0.758,-0.211,-0.125
4/14/2023 12:06:09.110,0.754,-0.16,-0.109
4/14/2023 12:06:09.120,0.773,-0.109,-0.109
4/14/2023 12:06:09.130,0.805,-0.082,-0.109
4/14/2023 12:06:09.140,0.852,-0.063,-0.113
4/14/2023 12:06:09.150,0.898,-0.039,-0.113
4/14/2023 12:06:09.160,0.938,-0.031,-0.133
4/14/2023 12:06:09.170,0.965,-0.035,-0.164
4/14/2023 12:06:09.180,0.984,-0.051,-0.18
4/14/2023 12:06:09.190,0.98,-0.066,-0.188
4/14/2023 12:06:09.200,0.957,-0.063,-0.172
4/14/2023 12:06:09.210,0.941,-0.047,-0.152
4/14/2023 12:06:09.220,0.984,-0.016,-0.125
4/14/2023 12:06:09.230,1.055,0.016,-0.098
4/14/2023 12:06:09.240,1.063,0.063,-0.074
4/14/2023 12:06:09.250,1.008,0.117,-0.043
4/14/2023 12:06:09.260,0.969,0.172,-0.02
4/14/2023 12:06:09.270,0.984,0.191,-0.016
4/14/2023 12:06:09.280,1.074,0.188,-0.031
4/14/2023 12:06:09.290,1.18,0.168,-0.055
4/14/2023 12:06:09.300,1.23,0.168,-0.063
4/14/2023 12:06:09.310,1.215,0.191,-0.043
4/14/2023 12:06:09.320,1.168,0.219,-0.012
4/14/2023 12:06:09.330,1.141,0.25,0.035
4/14/2023 12:06:09.340,1.141,0.273,0.082
4/14/2023 12:06:09.350,1.164,0.277,0.121
4/14/2023 12:06:09.360,1.195,0.27,0.137
4/14/2023 12:06:09.370,1.227,0.25,0.145
4/14/2023 12:06:09.380,1.262,0.215,0.121
4/14/2023 12:06:09.390,1.301,0.16,0.098
4/14/2023 12:06:09.400,1.328,0.105,0.074
4/14/2023 12:06:09.410,1.332,0.063,0.063
4/14/2023 12:06:09.420,1.293,0.047,0.051
4/14/2023 12:06:09.430,1.242,0.047,0.039
4/14/2023 12:06:09.440,1.188,0.082,0.027
4/14/2023 12:06:09.450,1.145,0.117,0.012
4/14/2023 12:06:09.460,1.105,0.141,0.004
4/14/2023 12:06:09.470,1.074,0.164,0
4/14/2023 12:06:09.480,1.047,0.199,-0.004
4/14/2023 12:06:09.490,1.02,0.238,-0.016
4/14/2023 12:06:09.500,0.992,0.293,-0.027
4/14/2023 12:06:09.510,0.988,0.348,-0.035
4/14/2023 12:06:09.520,0.973,0.391,-0.043
4/14/2023 12:06:09.530,0.957,0.43,-0.043
4/14/2023 12:06:09.540,0.926,0.461,-0.035
4/14/2023 12:06:09.550,0.906,0.469,-0.023
4/14/2023 12:06:09.560,0.887,0.461,-0.012
4/14/2023 12:06:09.570,0.887,0.453,-0.008
4/14/2023 12:06:09.580,0.895,0.43,0.008
4/14/2023 12:06:09.590,0.902,0.422,0.023
4/14/2023 12:06:09.600,0.922,0.406,0.031
4/14/2023 12:06:09.610,0.949,0.395,0.039
4/14/2023 12:06:09.620,0.988,0.387,0.035
4/14/2023 12:06:09.630,1.027,0.395,0.027
4/14/2023 12:06:09.640,1.059,0.41,0.023
4/14/2023 12:06:09.650,1.086,0.434,0.016
4/14/2023 12:06:09.660,1.102,0.465,0.008
4/14/2023 12:06:09.670,1.102,0.496,0.008
4/14/2023 12:06:09.680,1.109,0.523,0.008
4/14/2023 12:06:09.690,1.113,0.555,0.008
4/14/2023 12:06:09.700,1.148,0.586,-0.008
4/14/2023 12:06:09.710,1.25,0.621,-0.023
4/14/2023 12:06:09.720,1.383,0.656,-0.023
4/14/2023 12:06:09.730,1.457,0.691,-0.008
4/14/2023 12:06:09.740,1.43,0.715,0.023
4/14/2023 12:06:09.750,1.34,0.707,0.051
4/14/2023 12:06:09.760,1.262,0.688,0.051
4/14/2023 12:06:09.770,1.246,0.645,0.031
4/14/2023 12:06:09.780,1.277,0.563,0.008
4/14/2023 12:06:09.790,1.34,0.441,-0.016
4/14/2023 12:06:09.800,1.391,0.313,-0.031
4/14/2023 12:06:09.810,1.43,0.215,-0.047
4/14/2023 12:06:09.820,1.453,0.16,-0.055
4/14/2023 12:06:09.830,1.48,0.148,-0.094
4/14/2023 12:06:09.840,1.535,0.203,-0.137
4/14/2023 12:06:09.850,1.582,0.254,-0.18
4/14/2023 12:06:09.860,1.609,0.293,-0.219
4/14/2023 12:06:09.870,1.594,0.328,-0.238
4/14/2023 12:06:09.880,1.535,0.363,-0.242
4/14/2023 12:06:09.890,1.445,0.391,-0.227
4/14/2023 12:06:09.900,1.328,0.418,-0.207
4/14/2023 12:06:09.910,1.223,0.441,-0.191
4/14/2023 12:06:09.920,1.129,0.449,-0.184
4/14/2023 12:06:09.930,1.07,0.465,-0.18
4/14/2023 12:06:09.940,1.039,0.461,-0.184
4/14/2023 12:06:09.950,1.027,0.441,-0.188
4/14/2023 12:06:09.960,1.023,0.406,-0.195
4/14/2023 12:06:09.970,1.027,0.363,-0.203
4/14/2023 12:06:09.980,1.027,0.32,-0.195
4/14/2023 12:06:09.990,1.027,0.289,-0.168
4/14/2023 12:06:10.000,1.008,0.246,-0.141
4/14/2023 12:06:10.010,1.016,0.219,-0.117
4/14/2023 12:06:10.020,1.023,0.203,-0.094
4/14/2023 12:06:10.030,1.027,0.18,-0.078
4/14/2023 12:06:10.040,1.016,0.145,-0.059
4/14/2023 12:06:10.050,0.992,0.129,-0.039
4/14/2023 12:06:10.060,0.969,0.109,-0.02
4/14/2023 12:06:10.070,0.941,0.094,-0.008
4/14/2023 12:06:10.080,0.914,0.082,-0.008
4/14/2023 12:06:10.090,0.895,0.078,-0.008
4/14/2023 12:06:10.100,0.879,0.063,-0.012
4/14/2023 12:06:10.110,0.887,0.047,-0.012
4/14/2023 12:06:10.120,0.902,0.055,-0.016
4/14/2023 12:06:10.130,0.918,0.07,-0.023
4/14/2023 12:06:10.140,0.945,0.063,-0.039
4/14/2023 12:06:10.150,0.977,0.055,-0.043
4/14/2023 12:06:10.160,0.984,0.047,-0.035
4/14/2023 12:06:10.170,0.977,0.051,-0.035
4/14/2023 12:06:10.180,0.957,0.051,-0.039
4/14/2023 12:06:10.190,0.938,0.047,-0.055
4/14/2023 12:06:10.200,0.91,0.055,-0.066
4/14/2023 12:06:10.210,0.883,0.066,-0.074
4/14/2023 12:06:10.220,0.887,0.055,-0.082
4/14/2023 12:06:10.230,0.938,0.039,-0.074
4/14/2023 12:06:10.240,0.984,0.043,-0.063
4/14/2023 12:06:10.250,0.965,0.051,-0.043
4/14/2023 12:06:10.260,0.902,0.063,-0.012
4/14/2023 12:06:10.270,0.848,0.063,0.016
4/14/2023 12:06:10.280,0.836,0.063,0.043
4/14/2023 12:06:10.290,0.863,0.066,0.047
4/14/2023 12:06:10.300,0.922,0.07,0.039
4/14/2023 12:06:10.310,0.977,0.07,0.023
4/14/2023 12:06:10.320,1.023,0.078,0.023
4/14/2023 12:06:10.330,1.074,0.098,0.031
4/14/2023 12:06:10.340,1.137,0.109,0.047
4/14/2023 12:06:10.350,1.211,0.133,0.055
4/14/2023 12:06:10.360,1.289,0.168,0.055
4/14/2023 12:06:10.370,1.352,0.184,0.043
4/14/2023 12:06:10.380,1.402,0.191,0.02
4/14/2023 12:06:10.390,1.43,0.195,-0.008
4/14/2023 12:06:10.400,1.453,0.207,-0.031
4/14/2023 12:06:10.410,1.449,0.219,-0.035
4/14/2023 12:06:10.420,1.41,0.227,-0.023
4/14/2023 12:06:10.430,1.355,0.227,-0.004
4/14/2023 12:06:10.440,1.305,0.227,0.012
4/14/2023 12:06:10.450,1.266,0.238,0.004
4/14/2023 12:06:10.460,1.234,0.242,0
4/14/2023 12:06:10.470,1.219,0.258,-0.027
4/14/2023 12:06:10.480,1.199,0.27,-0.055
4/14/2023 12:06:10.490,1.176,0.305,-0.078
4/14/2023 12:06:10.500,1.145,0.34,-0.094
4/14/2023 12:06:10.510,1.113,0.359,-0.102
4/14/2023 12:06:10.520,1.102,0.391,-0.109
4/14/2023 12:06:10.530,1.082,0.422,-0.105
4/14/2023 12:06:10.540,1.066,0.441,-0.102
4/14/2023 12:06:10.550,1.051,0.457,-0.09
4/14/2023 12:06:10.560,1.043,0.477,-0.078
4/14/2023 12:06:10.570,1.035,0.492,-0.066
4/14/2023 12:06:10.580,1.039,0.508,-0.059
4/14/2023 12:06:10.590,1.031,0.512,-0.047
4/14/2023 12:06:10.600,1.023,0.508,-0.039
4/14/2023 12:06:10.610,1.016,0.5,-0.039
4/14/2023 12:06:10.620,1.012,0.492,-0.039
4/14/2023 12:06:10.630,1.023,0.48,-0.047
4/14/2023 12:06:10.640,1.043,0.492,-0.055
4/14/2023 12:06:10.650,1.066,0.523,-0.063
4/14/2023 12:06:10.660,1.117,0.57,-0.07
4/14/2023 12:06:10.670,1.168,0.629,-0.074
4/14/2023 12:06:10.680,1.223,0.707,-0.074
4/14/2023 12:06:10.690,1.25,0.777,-0.07
4/14/2023 12:06:10.700,1.246,0.844,-0.066
4/14/2023 12:06:10.710,1.219,0.906,-0.07
4/14/2023 12:06:10.720,1.199,0.965,-0.074
4/14/2023 12:06:10.730,1.223,0.992,-0.082
4/14/2023 12:06:10.740,1.309,0.988,-0.082
4/14/2023 12:06:10.750,1.367,0.922,-0.063
4/14/2023 12:06:10.760,1.352,0.82,-0.035
4/14/2023 12:06:10.770,1.277,0.738,-0.012
4/14/2023 12:06:10.780,1.211,0.676,-0.008
4/14/2023 12:06:10.790,1.223,0.629,-0.02
4/14/2023 12:06:10.800,1.305,0.594,-0.043
4/14/2023 12:06:10.810,1.391,0.555,-0.074
4/14/2023 12:06:10.820,1.422,0.512,-0.105
4/14/2023 12:06:10.830,1.406,0.461,-0.133
4/14/2023 12:06:10.840,1.402,0.418,-0.16
4/14/2023 12:06:10.850,1.414,0.391,-0.191
4/14/2023 12:06:10.860,1.453,0.379,-0.234
4/14/2023 12:06:10.870,1.496,0.379,-0.27
4/14/2023 12:06:10.880,1.535,0.375,-0.289
4/14/2023 12:06:10.890,1.563,0.375,-0.293
4/14/2023 12:06:10.900,1.566,0.355,-0.277
4/14/2023 12:06:10.910,1.547,0.332,-0.246
4/14/2023 12:06:10.920,1.5,0.316,-0.223
4/14/2023 12:06:10.930,1.438,0.297,-0.203
4/14/2023 12:06:10.940,1.375,0.293,-0.184
4/14/2023 12:06:10.950,1.332,0.297,-0.164
4/14/2023 12:06:10.960,1.297,0.301,-0.156
4/14/2023 12:06:10.970,1.273,0.297,-0.152
4/14/2023 12:06:10.980,1.238,0.293,-0.148
4/14/2023 12:06:10.990,1.199,0.301,-0.152
4/14/2023 12:06:11.000,1.16,0.305,-0.164
4/14/2023 12:06:11.010,1.164,0.305,-0.172
4/14/2023 12:06:11.020,1.164,0.273,-0.199
4/14/2023 12:06:11.030,1.141,0.199,-0.215
4/14/2023 12:06:11.040,1.098,0.082,-0.219
4/14/2023 12:06:11.050,1.043,-0.031,-0.199
4/14/2023 12:06:11.060,0.977,-0.094,-0.156
4/14/2023 12:06:11.070,0.91,-0.105,-0.105
4/14/2023 12:06:11.080,0.859,-0.066,-0.07
4/14/2023 12:06:11.090,0.836,-0.012,-0.047
4/14/2023 12:06:11.100,0.828,0.016,-0.035
4/14/2023 12:06:11.110,0.828,0.008,-0.047
4/14/2023 12:06:11.120,0.836,-0.012,-0.051
4/14/2023 12:06:11.130,0.844,-0.027,-0.063
4/14/2023 12:06:11.140,0.859,-0.051,-0.078
4/14/2023 12:06:11.150,0.898,-0.09,-0.094
4/14/2023 12:06:11.160,0.949,-0.117,-0.117
4/14/2023 12:06:11.170,0.977,-0.148,-0.133
4/14/2023 12:06:11.180,0.984,-0.18,-0.145
4/14/2023 12:06:11.190,0.973,-0.199,-0.148
4/14/2023 12:06:11.200,0.953,-0.184,-0.152
4/14/2023 12:06:11.210,0.934,-0.145,-0.156
4/14/2023 12:06:11.220,0.898,-0.109,-0.156
4/14/2023 12:06:11.230,0.879,-0.082,-0.152
4/14/2023 12:06:11.240,0.922,-0.031,-0.152
4/14/2023 12:06:11.250,1.016,0.039,-0.137
4/14/2023 12:06:11.260,1.059,0.094,-0.121
4/14/2023 12:06:11.270,0.996,0.117,-0.102
4/14/2023 12:06:11.280,0.949,0.117,-0.078
4/14/2023 12:06:11.290,0.973,0.113,-0.066
4/14/2023 12:06:11.300,1.047,0.141,-0.07
4/14/2023 12:06:11.310,1.133,0.191,-0.074
4/14/2023 12:06:11.320,1.188,0.215,-0.074
4/14/2023 12:06:11.330,1.199,0.223,-0.063
4/14/2023 12:06:11.340,1.199,0.223,-0.043
4/14/2023 12:06:11.350,1.219,0.23,-0.023
4/14/2023 12:06:11.360,1.254,0.258,0.004
4/14/2023 12:06:11.370,1.309,0.277,0.035
4/14/2023 12:06:11.380,1.344,0.285,0.059
4/14/2023 12:06:11.390,1.344,0.293,0.066
4/14/2023 12:06:11.400,1.332,0.285,0.066
4/14/2023 12:06:11.410,1.34,0.254,0.043
4/14/2023 12:06:11.420,1.348,0.227,0.02
4/14/2023 12:06:11.430,1.332,0.199,0.016
4/14/2023 12:06:11.440,1.293,0.18,0.023
4/14/2023 12:06:11.450,1.246,0.145,0.027
4/14/2023 12:06:11.460,1.195,0.109,0.039
4/14/2023 12:06:11.470,1.148,0.098,0.043
4/14/2023 12:06:11.480,1.109,0.105,0.035
4/14/2023 12:06:11.490,1.074,0.129,0.035
4/14/2023 12:06:11.500,1.055,0.164,0.023
4/14/2023 12:06:11.510,1.074,0.207,0.027
4/14/2023 12:06:11.520,1.098,0.234,0.031
4/14/2023 12:06:11.530,1.105,0.25,-0.004
4/14/2023 12:06:11.540,1.105,0.375,-0.027
4/14/2023 12:06:11.550,1.082,0.477,-0.039
4/14/2023 12:06:11.560,1.066,0.531,-0.051
4/14/2023 12:06:11.570,1.082,0.539,-0.047
4/14/2023 12:06:11.580,1.109,0.531,-0.039
4/14/2023 12:06:11.590,1.125,0.512,-0.023
4/14/2023 12:06:11.600,1.152,0.512,-0.012
4/14/2023 12:06:11.610,1.176,0.523,-0.008
4/14/2023 12:06:11.620,1.199,0.531,-0.008
4/14/2023 12:06:11.630,1.207,0.543,-0.004
4/14/2023 12:06:11.640,1.207,0.574,0.004
4/14/2023 12:06:11.650,1.195,0.617,0.02
4/14/2023 12:06:11.660,1.172,0.66,0.035
4/14/2023 12:06:11.670,1.164,0.707,0.051
4/14/2023 12:06:11.680,1.152,0.75,0.059
4/14/2023 12:06:11.690,1.148,0.789,0.059
4/14/2023 12:06:11.700,1.156,0.824,0.047
4/14/2023 12:06:11.710,1.148,0.836,0.027
4/14/2023 12:06:11.720,1.141,0.805,0.008
4/14/2023 12:06:11.730,1.152,0.742,-0.023
4/14/2023 12:06:11.740,1.242,0.688,-0.039
4/14/2023 12:06:11.750,1.383,0.625,-0.031
4/14/2023 12:06:11.760,1.488,0.551,-0.016
4/14/2023 12:06:11.770,1.504,0.477,0
4/14/2023 12:06:11.780,1.461,0.41,0.035
4/14/2023 12:06:11.790,1.398,0.359,0.074
4/14/2023 12:06:11.800,1.367,0.352,0.098
4/14/2023 12:06:11.810,1.363,0.359,0.094
4/14/2023 12:06:11.820,1.363,0.371,0.07
4/14/2023 12:06:11.830,1.34,0.383,0.035
4/14/2023 12:06:11.840,1.313,0.379,0
4/14/2023 12:06:11.850,1.313,0.363,-0.051
4/14/2023 12:06:11.860,1.355,0.367,-0.109
4/14/2023 12:06:11.870,1.441,0.375,-0.168
4/14/2023 12:06:11.880,1.547,0.383,-0.215
4/14/2023 12:06:11.890,1.633,0.383,-0.262
4/14/2023 12:06:11.900,1.676,0.363,-0.297
4/14/2023 12:06:11.910,1.68,0.332,-0.313
4/14/2023 12:06:11.920,1.648,0.305,-0.313
4/14/2023 12:06:11.930,1.594,0.277,-0.289
4/14/2023 12:06:11.940,1.523,0.254,-0.266
4/14/2023 12:06:11.950,1.449,0.25,-0.254
4/14/2023 12:06:11.960,1.379,0.25,-0.23
4/14/2023 12:06:11.970,1.316,0.242,-0.219
4/14/2023 12:06:11.980,1.258,0.242,-0.215
4/14/2023 12:06:11.990,1.203,0.246,-0.215
4/14/2023 12:06:12.000,1.156,0.25,-0.23
4/14/2023 12:06:12.010,1.145,0.258,-0.238
4/14/2023 12:06:12.020,1.156,0.262,-0.246
4/14/2023 12:06:12.030,1.152,0.258,-0.242
4/14/2023 12:06:12.040,1.137,0.262,-0.234
4/14/2023 12:06:12.050,1.121,0.277,-0.23
4/14/2023 12:06:12.060,1.109,0.301,-0.223
4/14/2023 12:06:12.070,1.105,0.316,-0.219
4/14/2023 12:06:12.080,1.102,0.309,-0.215
4/14/2023 12:06:12.090,1.102,0.27,-0.203
4/14/2023 12:06:12.100,1.098,0.238,-0.199
4/14/2023 12:06:12.110,1.086,0.207,-0.188
4/14/2023 12:06:12.120,1.063,0.16,-0.184
4/14/2023 12:06:12.130,1.039,0.105,-0.172
4/14/2023 12:06:12.140,1.023,0.055,-0.172
4/14/2023 12:06:12.150,1.008,0.008,-0.164
4/14/2023 12:06:12.160,0.984,-0.027,-0.164
4/14/2023 12:06:12.170,0.965,-0.043,-0.156
4/14/2023 12:06:12.180,0.93,-0.047,-0.141
4/14/2023 12:06:12.190,0.887,-0.039,-0.133
4/14/2023 12:06:12.200,0.848,-0.023,-0.141
4/14/2023 12:06:12.210,0.805,0,-0.145
4/14/2023 12:06:12.220,0.754,0.027,-0.137
4/14/2023 12:06:12.230,0.711,0.051,-0.125
4/14/2023 12:06:12.240,0.715,0.074,-0.109
4/14/2023 12:06:12.250,0.773,0.098,-0.094
4/14/2023 12:06:12.260,0.828,0.129,-0.09
4/14/2023 12:06:12.270,0.82,0.156,-0.082
4/14/2023 12:06:12.280,0.77,0.156,-0.07
4/14/2023 12:06:12.290,0.758,0.16,-0.047
4/14/2023 12:06:12.300,0.781,0.184,-0.02
4/14/2023 12:06:12.310,0.816,0.207,0.012
4/14/2023 12:06:12.320,0.855,0.242,0.043
4/14/2023 12:06:12.330,0.906,0.258,0.074
4/14/2023 12:06:12.340,0.949,0.266,0.102
4/14/2023 12:06:12.350,0.992,0.254,0.121
4/14/2023 12:06:12.360,1.039,0.23,0.133
4/14/2023 12:06:12.370,1.102,0.195,0.137
4/14/2023 12:06:12.380,1.172,0.156,0.133
4/14/2023 12:06:12.390,1.23,0.117,0.113
4/14/2023 12:06:12.400,1.27,0.074,0.082
4/14/2023 12:06:12.410,1.289,0.039,0.047
4/14/2023 12:06:12.420,1.305,0.023,0.02
4/14/2023 12:06:12.430,1.297,0.02,0.004
4/14/2023 12:06:12.440,1.273,0.02,0.004
4/14/2023 12:06:12.450,1.246,0.043,0.008
4/14/2023 12:06:12.460,1.223,0.082,0.031
4/14/2023 12:06:12.470,1.195,0.105,0.043
4/14/2023 12:06:12.480,1.176,0.148,0.035
4/14/2023 12:06:12.490,1.172,0.184,0.012
4/14/2023 12:06:12.500,1.172,0.219,-0.02
4/14/2023 12:06:12.510,1.18,0.246,-0.051
4/14/2023 12:06:12.520,1.176,0.262,-0.09
4/14/2023 12:06:12.530,1.18,0.289,-0.129
4/14/2023 12:06:12.540,1.191,0.324,-0.16
4/14/2023 12:06:12.550,1.207,0.363,-0.18
4/14/2023 12:06:12.560,1.219,0.395,-0.195
4/14/2023 12:06:12.570,1.223,0.422,-0.199
4/14/2023 12:06:12.580,1.23,0.441,-0.203
4/14/2023 12:06:12.590,1.227,0.465,-0.188
4/14/2023 12:06:12.600,1.219,0.496,-0.164
4/14/2023 12:06:12.610,1.199,0.531,-0.137
4/14/2023 12:06:12.620,1.184,0.563,-0.102
4/14/2023 12:06:12.630,1.176,0.578,-0.082
4/14/2023 12:06:12.640,1.176,0.602,-0.059
4/14/2023 12:06:12.650,1.184,0.617,-0.047
4/14/2023 12:06:12.660,1.211,0.641,-0.039
4/14/2023 12:06:12.670,1.238,0.66,-0.035
4/14/2023 12:06:12.680,1.266,0.688,-0.031
4/14/2023 12:06:12.690,1.281,0.727,-0.031
4/14/2023 12:06:12.700,1.293,0.762,-0.035
4/14/2023 12:06:12.710,1.305,0.793,-0.043
4/14/2023 12:06:12.720,1.301,0.797,-0.055
4/14/2023 12:06:12.730,1.293,0.805,-0.066
4/14/2023 12:06:12.740,1.301,0.805,-0.082
4/14/2023 12:06:12.750,1.363,0.797,-0.082
4/14/2023 12:06:12.760,1.453,0.785,-0.055
4/14/2023 12:06:12.770,1.48,0.742,-0.031
4/14/2023 12:06:12.780,1.418,0.664,-0.023
4/14/2023 12:06:12.790,1.34,0.574,-0.031
4/14/2023 12:06:12.800,1.297,0.492,-0.039
4/14/2023 12:06:12.810,1.285,0.438,-0.039
4/14/2023 12:06:12.820,1.285,0.41,-0.035
4/14/2023 12:06:12.830,1.262,0.383,-0.023
4/14/2023 12:06:12.840,1.227,0.348,-0.012
4/14/2023 12:06:12.850,1.207,0.313,0.004
4/14/2023 12:06:12.860,1.207,0.281,0
4/14/2023 12:06:12.870,1.246,0.27,-0.027
4/14/2023 12:06:12.880,1.316,0.281,-0.047
4/14/2023 12:06:12.890,1.398,0.305,-0.074
4/14/2023 12:06:12.900,1.457,0.313,-0.105
4/14/2023 12:06:12.910,1.484,0.324,-0.145
4/14/2023 12:06:12.920,1.484,0.34,-0.172
4/14/2023 12:06:12.930,1.461,0.359,-0.188
4/14/2023 12:06:12.940,1.422,0.371,-0.188
4/14/2023 12:06:12.950,1.375,0.379,-0.18
4/14/2023 12:06:12.960,1.324,0.379,-0.176
4/14/2023 12:06:12.970,1.281,0.375,-0.16
4/14/2023 12:06:12.980,1.242,0.363,-0.152
4/14/2023 12:06:12.990,1.215,0.352,-0.152
4/14/2023 12:06:13.000,1.176,0.344,-0.152
4/14/2023 12:06:13.010,1.16,0.328,-0.16
4/14/2023 12:06:13.020,1.141,0.32,-0.168
4/14/2023 12:06:13.030,1.121,0.301,-0.172
4/14/2023 12:06:13.040,1.109,0.293,-0.184
4/14/2023 12:06:13.050,1.105,0.27,-0.176
4/14/2023 12:06:13.060,1.098,0.238,-0.168
4/14/2023 12:06:13.070,1.086,0.215,-0.156
4/14/2023 12:06:13.080,1.074,0.188,-0.148
4/14/2023 12:06:13.090,1.07,0.164,-0.145
4/14/2023 12:06:13.100,1.066,0.148,-0.133
4/14/2023 12:06:13.110,1.066,0.125,-0.121
4/14/2023 12:06:13.120,1.063,0.105,-0.121
4/14/2023 12:06:13.130,1.051,0.09,-0.113
4/14/2023 12:06:13.140,1.035,0.078,-0.113
4/14/2023 12:06:13.150,1.016,0.063,-0.109
4/14/2023 12:06:13.160,1.004,0.055,-0.109
4/14/2023 12:06:13.170,0.988,0.043,-0.109
4/14/2023 12:06:13.180,0.988,0.02,-0.113
4/14/2023 12:06:13.190,0.988,-0.004,-0.109
4/14/2023 12:06:13.200,0.973,-0.016,-0.109
4/14/2023 12:06:13.210,0.953,-0.023,-0.117
4/14/2023 12:06:13.220,0.93,-0.031,-0.133
4/14/2023 12:06:13.230,0.898,-0.035,-0.145
4/14/2023 12:06:13.240,0.855,-0.043,-0.156
4/14/2023 12:06:13.250,0.801,-0.043,-0.145
4/14/2023 12:06:13.260,0.738,-0.035,-0.125
4/14/2023 12:06:13.270,0.699,-0.012,-0.105
4/14/2023 12:06:13.280,0.723,0.027,-0.07
4/14/2023 12:06:13.290,0.773,0.09,-0.035
4/14/2023 12:06:13.300,0.781,0.133,-0.008
4/14/2023 12:06:13.310,0.785,0.152,0.012
4/14/2023 12:06:13.320,0.824,0.156,0.012
4/14/2023 12:06:13.330,0.895,0.168,0.012
4/14/2023 12:06:13.340,0.969,0.176,0.004
4/14/2023 12:06:13.350,1.02,0.172,0
4/14/2023 12:06:13.360,1.043,0.164,0
4/14/2023 12:06:13.370,1.063,0.16,0
4/14/2023 12:06:13.380,1.094,0.164,0.02
4/14/2023 12:06:13.390,1.133,0.16,0.039
4/14/2023 12:06:13.400,1.188,0.156,0.059
4/14/2023 12:06:13.410,1.25,0.156,0.063
4/14/2023 12:06:13.420,1.305,0.152,0.051
4/14/2023 12:06:13.430,1.355,0.148,0.023
4/14/2023 12:06:13.440,1.395,0.148,-0.016
4/14/2023 12:06:13.450,1.418,0.16,-0.055
4/14/2023 12:06:13.460,1.434,0.191,-0.074
4/14/2023 12:06:13.470,1.422,0.219,-0.066
4/14/2023 12:06:13.480,1.391,0.234,-0.031
4/14/2023 12:06:13.490,1.344,0.246,-0.012
4/14/2023 12:06:13.500,1.281,0.254,-0.016
4/14/2023 12:06:13.510,1.262,0.254,-0.055
4/14/2023 12:06:13.520,1.246,0.266,-0.098
4/14/2023 12:06:13.530,1.211,0.293,-0.125
4/14/2023 12:06:13.540,1.16,0.332,-0.121
4/14/2023 12:06:13.550,1.113,0.387,-0.098
4/14/2023 12:06:13.560,1.078,0.445,-0.066
4/14/2023 12:06:13.570,1.043,0.512,-0.043
4/14/2023 12:06:13.580,1.027,0.563,-0.02
4/14/2023 12:06:13.590,1.027,0.594,-0.004
4/14/2023 12:06:13.600,1.043,0.605,0.004
4/14/2023 12:06:13.610,1.063,0.602,0.008
4/14/2023 12:06:13.620,1.094,0.578,0.016
4/14/2023 12:06:13.630,1.129,0.566,0.012
4/14/2023 12:06:13.640,1.156,0.566,-0.008
4/14/2023 12:06:13.650,1.184,0.563,-0.02
4/14/2023 12:06:13.660,1.219,0.555,-0.031
4/14/2023 12:06:13.670,1.266,0.551,-0.047
4/14/2023 12:06:13.680,1.293,0.543,-0.059
4/14/2023 12:06:13.690,1.301,0.539,-0.063
4/14/2023 12:06:13.700,1.293,0.551,-0.066
4/14/2023 12:06:13.710,1.281,0.559,-0.07
4/14/2023 12:06:13.720,1.285,0.57,-0.078
4/14/2023 12:06:13.730,1.289,0.59,-0.09
4/14/2023 12:06:13.740,1.305,0.625,-0.117
4/14/2023 12:06:13.750,1.348,0.664,-0.129
4/14/2023 12:06:13.760,1.395,0.703,-0.113
4/14/2023 12:06:13.770,1.379,0.711,-0.074
4/14/2023 12:06:13.780,1.281,0.695,-0.023
4/14/2023 12:06:13.790,1.156,0.672,0.012
4/14/2023 12:06:13.800,1.086,0.652,0.031
4/14/2023 12:06:13.810,1.094,0.629,0.035
4/14/2023 12:06:13.820,1.145,0.602,0.031
4/14/2023 12:06:13.830,1.207,0.574,0.016
4/14/2023 12:06:13.840,1.242,0.535,-0.008
4/14/2023 12:06:13.850,1.258,0.496,-0.047
4/14/2023 12:06:13.860,1.289,0.469,-0.09
4/14/2023 12:06:13.870,1.328,0.445,-0.141
4/14/2023 12:06:13.880,1.367,0.422,-0.195
4/14/2023 12:06:13.890,1.426,0.41,-0.238
4/14/2023 12:06:13.900,1.477,0.375,-0.27
4/14/2023 12:06:13.910,1.512,0.34,-0.285
4/14/2023 12:06:13.920,1.516,0.305,-0.297
4/14/2023 12:06:13.930,1.496,0.266,-0.297
4/14/2023 12:06:13.940,1.441,0.234,-0.266
4/14/2023 12:06:13.950,1.371,0.219,-0.23
4/14/2023 12:06:13.960,1.285,0.211,-0.195
4/14/2023 12:06:13.970,1.215,0.211,-0.172
4/14/2023 12:06:13.980,1.16,0.223,-0.156
4/14/2023 12:06:13.990,1.117,0.238,-0.145
4/14/2023 12:06:14.000,1.078,0.262,-0.148
4/14/2023 12:06:14.010,1.066,0.281,-0.148
4/14/2023 12:06:14.020,1.055,0.297,-0.164
4/14/2023 12:06:14.030,1.051,0.305,-0.176
4/14/2023 12:06:14.040,1.043,0.305,-0.18
4/14/2023 12:06:14.050,1.043,0.309,-0.18
4/14/2023 12:06:14.060,1.059,0.305,-0.172
4/14/2023 12:06:14.070,1.07,0.305,-0.16
4/14/2023 12:06:14.080,1.09,0.293,-0.152
4/14/2023 12:06:14.090,1.105,0.262,-0.148
4/14/2023 12:06:14.100,1.121,0.227,-0.148
4/14/2023 12:06:14.110,1.113,0.199,-0.152
4/14/2023 12:06:14.120,1.105,0.16,-0.152
4/14/2023 12:06:14.130,1.098,0.117,-0.156
4/14/2023 12:06:14.140,1.102,0.07,-0.148
4/14/2023 12:06:14.150,1.105,0.016,-0.148
4/14/2023 12:06:14.160,1.102,-0.047,-0.148
4/14/2023 12:06:14.170,1.086,-0.113,-0.148
4/14/2023 12:06:14.180,1.066,-0.156,-0.148
4/14/2023 12:06:14.190,1.035,-0.188,-0.152
4/14/2023 12:06:14.200,0.984,-0.203,-0.16
4/14/2023 12:06:14.210,0.922,-0.199,-0.16
4/14/2023 12:06:14.220,0.855,-0.184,-0.152
4/14/2023 12:06:14.230,0.789,-0.145,-0.145
4/14/2023 12:06:14.240,0.773,-0.086,-0.129
4/14/2023 12:06:14.250,0.801,-0.035,-0.109
4/14/2023 12:06:14.260,0.828,-0.004,-0.105
4/14/2023 12:06:14.270,0.816,0.008,-0.109
4/14/2023 12:06:14.280,0.801,0.043,-0.121
4/14/2023 12:06:14.290,0.785,0.102,-0.129
4/14/2023 12:06:14.300,0.785,0.18,-0.117
4/14/2023 12:06:14.310,0.813,0.246,-0.09
4/14/2023 12:06:14.320,0.859,0.266,-0.055
4/14/2023 12:06:14.330,0.934,0.23,-0.004
4/14/2023 12:06:14.340,1.031,0.172,0.055
4/14/2023 12:06:14.350,1.145,0.121,0.102
4/14/2023 12:06:14.360,1.258,0.086,0.133
4/14/2023 12:06:14.370,1.387,0.016,0.141
4/14/2023 12:06:14.380,1.512,-0.074,0.133
4/14/2023 12:06:14.390,1.598,-0.16,0.109
4/14/2023 12:06:14.400,1.641,-0.199,0.078
4/14/2023 12:06:14.410,1.637,-0.188,0.043
4/14/2023 12:06:14.420,1.578,-0.148,0.02
4/14/2023 12:06:14.430,1.5,-0.102,0.016
4/14/2023 12:06:14.440,1.418,-0.039,0.027
4/14/2023 12:06:14.450,1.324,0.023,0.051
4/14/2023 12:06:14.460,1.238,0.094,0.066
4/14/2023 12:06:14.470,1.176,0.164,0.063
4/14/2023 12:06:14.480,1.141,0.234,0.035
4/14/2023 12:06:14.490,1.121,0.289,0.016
4/14/2023 12:06:14.500,1.078,0.336,0
4/14/2023 12:06:14.510,1.043,0.359,0
4/14/2023 12:06:14.520,1.008,0.379,0.008
4/14/2023 12:06:14.530,1,0.398,0.02
4/14/2023 12:06:14.540,1.02,0.426,0.051
4/14/2023 12:06:14.550,1.047,0.461,0.074
4/14/2023 12:06:14.560,1.07,0.496,0.09
4/14/2023 12:06:14.570,1.094,0.531,0.098
4/14/2023 12:06:14.580,1.117,0.551,0.105
4/14/2023 12:06:14.590,1.141,0.559,0.129
4/14/2023 12:06:14.600,1.137,0.574,0.16
4/14/2023 12:06:14.610,1.117,0.617,0.188
4/14/2023 12:06:14.620,1.102,0.699,0.215
4/14/2023 12:06:14.630,1.098,0.809,0.223
4/14/2023 12:06:14.640,1.098,0.883,0.215
4/14/2023 12:06:14.650,1.129,0.945,0.156
4/14/2023 12:06:14.660,1.176,0.934,0.082
4/14/2023 12:06:14.670,1.242,0.824,0.004
4/14/2023 12:06:14.680,1.289,0.695,-0.043
4/14/2023 12:06:14.690,1.316,0.57,-0.043
4/14/2023 12:06:14.700,1.352,0.484,-0.016
4/14/2023 12:06:14.710,1.398,0.477,0.027
4/14/2023 12:06:14.720,1.406,0.523,0.078
4/14/2023 12:06:14.730,1.383,0.609,0.129
4/14/2023 12:06:14.740,1.387,0.73,0.195
4/14/2023 12:06:14.750,1.395,0.828,0.258
4/14/2023 12:06:14.760,1.313,0.82,0.309
4/14/2023 12:06:14.770,1.156,0.758,0.344
4/14/2023 12:06:14.780,1.117,0.676,0.34
4/14/2023 12:06:14.790,1.176,0.629,0.301
4/14/2023 12:06:14.800,1.238,0.605,0.262
4/14/2023 12:06:14.810,1.266,0.578,0.234
4/14/2023 12:06:14.820,1.289,0.57,0.215
4/14/2023 12:06:14.830,1.328,0.566,0.184
4/14/2023 12:06:14.840,1.375,0.563,0.148
4/14/2023 12:06:14.850,1.441,0.555,0.109
4/14/2023 12:06:14.860,1.531,0.543,0.051
4/14/2023 12:06:14.870,1.613,0.531,-0.008
4/14/2023 12:06:14.880,1.668,0.504,-0.063
4/14/2023 12:06:14.890,1.684,0.469,-0.105
4/14/2023 12:06:14.900,1.668,0.438,-0.137
4/14/2023 12:06:14.910,1.629,0.422,-0.152
4/14/2023 12:06:14.920,1.547,0.406,-0.148
4/14/2023 12:06:14.930,1.449,0.387,-0.133
4/14/2023 12:06:14.940,1.355,0.359,-0.109
4/14/2023 12:06:14.950,1.258,0.34,-0.09
4/14/2023 12:06:14.960,1.188,0.324,-0.082
4/14/2023 12:06:14.970,1.133,0.32,-0.082
4/14/2023 12:06:14.980,1.094,0.32,-0.082
4/14/2023 12:06:14.990,1.078,0.316,-0.074
4/14/2023 12:06:15.000,1.066,0.309,-0.066
4/14/2023 12:06:15.010,1.07,0.281,-0.039
4/14/2023 12:06:15.020,1.078,0.25,-0.012
4/14/2023 12:06:15.030,1.086,0.203,0.004
4/14/2023 12:06:15.040,1.094,0.156,0
4/14/2023 12:06:15.050,1.102,0.129,-0.012
4/14/2023 12:06:15.060,1.094,0.113,-0.012
4/14/2023 12:06:15.070,1.074,0.082,-0.027
4/14/2023 12:06:15.080,1.063,0.027,-0.031
4/14/2023 12:06:15.090,1.016,-0.004,-0.012
4/14/2023 12:06:15.100,0.945,-0.008,0.016
4/14/2023 12:06:15.110,0.879,-0.016,0.031
4/14/2023 12:06:15.120,0.836,-0.02,0.043
4/14/2023 12:06:15.130,0.816,-0.027,0.051
4/14/2023 12:06:15.140,0.789,-0.055,0.051
4/14/2023 12:06:15.150,0.77,-0.082,0.047
4/14/2023 12:06:15.160,0.766,-0.117,0.031
4/14/2023 12:06:15.170,0.777,-0.148,0
4/14/2023 12:06:15.180,0.793,-0.156,-0.02
4/14/2023 12:06:15.190,0.785,-0.121,-0.031
4/14/2023 12:06:15.200,0.742,-0.066,-0.02
4/14/2023 12:06:15.210,0.688,-0.031,0.008
4/14/2023 12:06:15.220,0.66,0,0.047
4/14/2023 12:06:15.230,0.695,0.023,0.074
4/14/2023 12:06:15.240,0.738,0.059,0.078
4/14/2023 12:06:15.250,0.77,0.098,0.082
4/14/2023 12:06:15.260,0.789,0.137,0.098
4/14/2023 12:06:15.270,0.809,0.145,0.117
4/14/2023 12:06:15.280,0.844,0.117,0.141
4/14/2023 12:06:15.290,0.902,0.098,0.152
4/14/2023 12:06:15.300,0.984,0.09,0.172
4/14/2023 12:06:15.310,1.09,0.078,0.188
4/14/2023 12:06:15.320,1.219,0.059,0.191
4/14/2023 12:06:15.330,1.363,0.043,0.18
4/14/2023 12:06:15.340,1.523,0.051,0.152
4/14/2023 12:06:15.350,1.684,0.09,0.109
4/14/2023 12:06:15.360,1.809,0.148,0.078
4/14/2023 12:06:15.370,1.863,0.242,0.066
4/14/2023 12:06:15.380,1.844,0.359,0.07
4/14/2023 12:06:15.390,1.785,0.449,0.09
4/14/2023 12:06:15.400,1.676,0.535,0.125
4/14/2023 12:06:15.410,1.543,0.613,0.168
4/14/2023 12:06:15.420,1.477,0.648,0.211
4/14/2023 12:06:15.430,1.406,0.668,0.254
4/14/2023 12:06:15.440,1.297,0.699,0.25
4/14/2023 12:06:15.450,1.219,0.738,0.203
4/14/2023 12:06:15.460,1.152,0.766,0.152
4/14/2023 12:06:15.470,1.098,0.773,0.121
4/14/2023 12:06:15.480,1.039,0.754,0.105
4/14/2023 12:06:15.490,0.992,0.723,0.102
4/14/2023 12:06:15.500,0.957,0.707,0.105
4/14/2023 12:06:15.510,0.949,0.688,0.125
4/14/2023 12:06:15.520,0.922,0.676,0.129
4/14/2023 12:06:15.530,0.914,0.656,0.133
4/14/2023 12:06:15.540,0.906,0.648,0.133
4/14/2023 12:06:15.550,0.895,0.641,0.133
4/14/2023 12:06:15.560,0.875,0.637,0.141
4/14/2023 12:06:15.570,0.855,0.625,0.148
4/14/2023 12:06:15.580,0.836,0.609,0.156
4/14/2023 12:06:15.590,0.828,0.609,0.156
4/14/2023 12:06:15.600,0.832,0.617,0.16
4/14/2023 12:06:15.610,0.855,0.613,0.148
4/14/2023 12:06:15.620,0.898,0.621,0.133
4/14/2023 12:06:15.630,0.945,0.633,0.117
4/14/2023 12:06:15.640,0.988,0.656,0.094
4/14/2023 12:06:15.650,1.043,0.703,0.059
4/14/2023 12:06:15.660,1.098,0.758,0.02
4/14/2023 12:06:15.670,1.141,0.84,-0.023
4/14/2023 12:06:15.680,1.156,0.934,-0.074
4/14/2023 12:06:15.690,1.16,1.055,-0.133
4/14/2023 12:06:15.700,1.141,1.16,-0.145
4/14/2023 12:06:15.710,1.105,1.207,-0.129
4/14/2023 12:06:15.720,1.098,1.188,-0.113
4/14/2023 12:06:15.730,1.133,1.094,-0.113
4/14/2023 12:06:15.740,1.203,0.957,-0.113
4/14/2023 12:06:15.750,1.262,0.82,-0.121
4/14/2023 12:06:15.760,1.27,0.723,-0.121
4/14/2023 12:06:15.770,1.262,0.66,-0.098
4/14/2023 12:06:15.780,1.27,0.605,-0.059
4/14/2023 12:06:15.790,1.297,0.551,-0.023
4/14/2023 12:06:15.800,1.324,0.508,0.012
4/14/2023 12:06:15.810,1.34,0.477,0.031
4/14/2023 12:06:15.820,1.344,0.441,0.023
4/14/2023 12:06:15.830,1.363,0.41,-0.012
4/14/2023 12:06:15.840,1.418,0.395,-0.082
4/14/2023 12:06:15.850,1.496,0.363,-0.16
4/14/2023 12:06:15.860,1.566,0.34,-0.234
4/14/2023 12:06:15.870,1.605,0.313,-0.289
4/14/2023 12:06:15.880,1.621,0.285,-0.32
4/14/2023 12:06:15.890,1.629,0.262,-0.332
4/14/2023 12:06:15.900,1.621,0.258,-0.313
4/14/2023 12:06:15.910,1.59,0.266,-0.266
4/14/2023 12:06:15.920,1.508,0.266,-0.215
4/14/2023 12:06:15.930,1.387,0.27,-0.16
4/14/2023 12:06:15.940,1.277,0.289,-0.117
4/14/2023 12:06:15.950,1.188,0.301,-0.094
4/14/2023 12:06:15.960,1.133,0.316,-0.09
4/14/2023 12:06:15.970,1.098,0.336,-0.102
4/14/2023 12:06:15.980,1.078,0.348,-0.117
4/14/2023 12:06:15.990,1.07,0.348,-0.133
4/14/2023 12:06:16.000,1.063,0.344,-0.145
4/14/2023 12:06:16.010,1.074,0.332,-0.145
4/14/2023 12:06:16.020,1.059,0.316,-0.148
4/14/2023 12:06:16.030,1.043,0.297,-0.145
4/14/2023 12:06:16.040,1.027,0.266,-0.137
4/14/2023 12:06:16.050,1.027,0.242,-0.129
4/14/2023 12:06:16.060,1.027,0.227,-0.121
4/14/2023 12:06:16.070,1.039,0.211,-0.113
4/14/2023 12:06:16.080,1.059,0.184,-0.098
4/14/2023 12:06:16.090,1.074,0.129,-0.102
4/14/2023 12:06:16.100,1.082,0.027,-0.102
4/14/2023 12:06:16.110,1.059,-0.102,-0.102
4/14/2023 12:06:16.120,1.027,-0.23,-0.098
4/14/2023 12:06:16.130,0.992,-0.328,-0.094
4/14/2023 12:06:16.140,0.961,-0.379,-0.086
4/14/2023 12:06:16.150,0.93,-0.387,-0.082
4/14/2023 12:06:16.160,0.906,-0.367,-0.094
4/14/2023 12:06:16.170,0.879,-0.34,-0.109
4/14/2023 12:06:16.180,0.848,-0.297,-0.129
4/14/2023 12:06:16.190,0.828,-0.23,-0.145
4/14/2023 12:06:16.200,0.793,-0.16,-0.148
4/14/2023 12:06:16.210,0.789,-0.078,-0.129
4/14/2023 12:06:16.220,0.84,-0.008,-0.098
4/14/2023 12:06:16.230,0.902,0.063,-0.082
4/14/2023 12:06:16.240,0.934,0.117,-0.086
4/14/2023 12:06:16.250,0.945,0.152,-0.086
4/14/2023 12:06:16.260,0.957,0.164,-0.074
4/14/2023 12:06:16.270,1.004,0.16,-0.074
4/14/2023 12:06:16.280,1.09,0.168,-0.094
4/14/2023 12:06:16.290,1.168,0.191,-0.109
4/14/2023 12:06:16.300,1.219,0.203,-0.113
4/14/2023 12:06:16.310,1.258,0.223,-0.094
4/14/2023 12:06:16.320,1.305,0.246,-0.066
4/14/2023 12:06:16.330,1.359,0.262,-0.031
4/14/2023 12:06:16.340,1.422,0.277,0.02
4/14/2023 12:06:16.350,1.461,0.27,0.063
4/14/2023 12:06:16.360,1.465,0.246,0.09
4/14/2023 12:06:16.370,1.469,0.227,0.094
4/14/2023 12:06:16.380,1.477,0.199,0.063
4/14/2023 12:06:16.390,1.48,0.172,0.035
4/14/2023 12:06:16.400,1.473,0.16,0.023
4/14/2023 12:06:16.410,1.438,0.152,0.023
4/14/2023 12:06:16.420,1.375,0.133,0.031
4/14/2023 12:06:16.430,1.316,0.129,0.031
4/14/2023 12:06:16.440,1.27,0.148,0.023
4/14/2023 12:06:16.450,1.227,0.184,0.012
4/14/2023 12:06:16.460,1.176,0.207,-0.004
4/14/2023 12:06:16.470,1.133,0.238,-0.031
4/14/2023 12:06:16.480,1.113,0.27,-0.055
4/14/2023 12:06:16.490,1.113,0.297,-0.074
4/14/2023 12:06:16.500,1.098,0.332,-0.078
4/14/2023 12:06:16.510,1.098,0.379,-0.086
4/14/2023 12:06:16.520,1.086,0.438,-0.082
4/14/2023 12:06:16.530,1.074,0.5,-0.066
4/14/2023 12:06:16.540,1.047,0.543,-0.039
4/14/2023 12:06:16.550,1.031,0.566,-0.016
4/14/2023 12:06:16.560,1.012,0.582,0
4/14/2023 12:06:16.570,1,0.59,0.008
4/14/2023 12:06:16.580,1.004,0.594,0
4/14/2023 12:06:16.590,1.016,0.598,0
4/14/2023 12:06:16.600,1.043,0.594,-0.004
4/14/2023 12:06:16.610,1.078,0.598,-0.004
4/14/2023 12:06:16.620,1.109,0.602,-0.004
4/14/2023 12:06:16.630,1.129,0.609,-0.012
4/14/2023 12:06:16.640,1.141,0.621,-0.016
4/14/2023 12:06:16.650,1.152,0.648,-0.027
4/14/2023 12:06:16.660,1.176,0.684,-0.043
4/14/2023 12:06:16.670,1.18,0.723,-0.059
4/14/2023 12:06:16.680,1.168,0.754,-0.078
4/14/2023 12:06:16.690,1.164,0.781,-0.102
4/14/2023 12:06:16.700,1.223,0.828,-0.113
4/14/2023 12:06:16.710,1.309,0.875,-0.113
4/14/2023 12:06:16.720,1.355,0.898,-0.09
4/14/2023 12:06:16.730,1.324,0.879,-0.059
4/14/2023 12:06:16.740,1.254,0.848,-0.031
4/14/2023 12:06:16.750,1.215,0.805,-0.027
4/14/2023 12:06:16.760,1.25,0.738,-0.047
4/14/2023 12:06:16.770,1.32,0.664,-0.07
4/14/2023 12:06:16.780,1.379,0.586,-0.094
4/14/2023 12:06:16.790,1.402,0.52,-0.117
4/14/2023 12:06:16.800,1.406,0.465,-0.152
4/14/2023 12:06:16.810,1.441,0.43,-0.191
4/14/2023 12:06:16.820,1.504,0.414,-0.238
4/14/2023 12:06:16.830,1.59,0.406,-0.281
4/14/2023 12:06:16.840,1.652,0.398,-0.32
4/14/2023 12:06:16.850,1.668,0.375,-0.336
4/14/2023 12:06:16.860,1.645,0.344,-0.328
4/14/2023 12:06:16.870,1.602,0.316,-0.301
4/14/2023 12:06:16.880,1.539,0.297,-0.266
4/14/2023 12:06:16.890,1.453,0.289,-0.223
4/14/2023 12:06:16.900,1.355,0.289,-0.18
4/14/2023 12:06:16.910,1.262,0.301,-0.145
4/14/2023 12:06:16.920,1.184,0.309,-0.125
4/14/2023 12:06:16.930,1.133,0.32,-0.113
4/14/2023 12:06:16.940,1.105,0.328,-0.105
4/14/2023 12:06:16.950,1.098,0.332,-0.105
4/14/2023 12:06:16.960,1.094,0.336,-0.109
4/14/2023 12:06:16.970,1.102,0.336,-0.109
4/14/2023 12:06:16.980,1.109,0.324,-0.109
4/14/2023 12:06:16.990,1.117,0.309,-0.113
4/14/2023 12:06:17.000,1.129,0.289,-0.113
4/14/2023 12:06:17.010,1.156,0.262,-0.113
4/14/2023 12:06:17.020,1.168,0.23,-0.133
4/14/2023 12:06:17.030,1.184,0.215,-0.141
4/14/2023 12:06:17.040,1.199,0.195,-0.145
4/14/2023 12:06:17.050,1.215,0.168,-0.156
4/14/2023 12:06:17.060,1.219,0.141,-0.16
4/14/2023 12:06:17.070,1.219,0.117,-0.168
4/14/2023 12:06:17.080,1.223,0.094,-0.176
4/14/2023 12:06:17.090,1.234,0.066,-0.18
4/14/2023 12:06:17.100,1.25,0.031,-0.188
4/14/2023 12:06:17.110,1.242,-0.016,-0.188
4/14/2023 12:06:17.120,1.207,-0.066,-0.191
4/14/2023 12:06:17.130,1.148,-0.105,-0.199
4/14/2023 12:06:17.140,1.078,-0.141,-0.207
4/14/2023 12:06:17.150,1.012,-0.164,-0.215
4/14/2023 12:06:17.160,0.945,-0.184,-0.219
4/14/2023 12:06:17.170,0.875,-0.188,-0.219
4/14/2023 12:06:17.180,0.82,-0.172,-0.215
4/14/2023 12:06:17.190,0.801,-0.125,-0.184
4/14/2023 12:06:17.200,0.809,-0.051,-0.148
4/14/2023 12:06:17.210,0.785,0.023,-0.121
4/14/2023 12:06:17.220,0.738,0.082,-0.086
4/14/2023 12:06:17.230,0.707,0.129,-0.059
4/14/2023 12:06:17.240,0.715,0.156,-0.023
4/14/2023 12:06:17.250,0.758,0.16,0
4/14/2023 12:06:17.260,0.82,0.172,0.004
4/14/2023 12:06:17.270,0.863,0.188,0.016
4/14/2023 12:06:17.280,0.898,0.203,0.027
4/14/2023 12:06:17.290,0.938,0.203,0.047
4/14/2023 12:06:17.300,1.004,0.188,0.066
4/14/2023 12:06:17.310,1.094,0.16,0.082
4/14/2023 12:06:17.320,1.191,0.133,0.094
4/14/2023 12:06:17.330,1.273,0.102,0.102
4/14/2023 12:06:17.340,1.336,0.07,0.094
4/14/2023 12:06:17.350,1.371,0.035,0.082
4/14/2023 12:06:17.360,1.395,0.004,0.07
4/14/2023 12:06:17.370,1.406,-0.012,0.063
4/14/2023 12:06:17.380,1.387,-0.02,0.059
4/14/2023 12:06:17.390,1.352,-0.02,0.063
4/14/2023 12:06:17.400,1.313,-0.008,0.063
4/14/2023 12:06:17.410,1.285,0.02,0.059
4/14/2023 12:06:17.420,1.273,0.047,0.039
4/14/2023 12:06:17.430,1.277,0.078,-0.012
4/14/2023 12:06:17.440,1.301,0.137,-0.07
4/14/2023 12:06:17.450,1.336,0.211,-0.133
4/14/2023 12:06:17.460,1.367,0.285,-0.18
4/14/2023 12:06:17.470,1.395,0.348,-0.184
4/14/2023 12:06:17.480,1.414,0.402,-0.164
4/14/2023 12:06:17.490,1.398,0.457,-0.141
4/14/2023 12:06:17.500,1.352,0.52,-0.105
4/14/2023 12:06:17.510,1.305,0.586,-0.074
4/14/2023 12:06:17.520,1.25,0.637,-0.055
4/14/2023 12:06:17.530,1.219,0.668,-0.027
4/14/2023 12:06:17.540,1.191,0.68,0.004
4/14/2023 12:06:17.550,1.168,0.688,0.039
4/14/2023 12:06:17.560,1.145,0.691,0.074
4/14/2023 12:06:17.570,1.141,0.695,0.094
4/14/2023 12:06:17.580,1.164,0.699,0.105
4/14/2023 12:06:17.590,1.207,0.723,0.098
4/14/2023 12:06:17.600,1.254,0.727,0.082
4/14/2023 12:06:17.610,1.301,0.715,0.059
4/14/2023 12:06:17.620,1.34,0.703,0.023
4/14/2023 12:06:17.630,1.371,0.684,-0.008
4/14/2023 12:06:17.640,1.391,0.66,-0.047
4/14/2023 12:06:17.650,1.406,0.629,-0.078
4/14/2023 12:06:17.660,1.391,0.59,-0.098
4/14/2023 12:06:17.670,1.34,0.547,-0.117
4/14/2023 12:06:17.680,1.289,0.535,-0.137
4/14/2023 12:06:17.690,1.285,0.551,-0.133
4/14/2023 12:06:17.700,1.324,0.578,-0.102
4/14/2023 12:06:17.710,1.328,0.59,-0.039
4/14/2023 12:06:17.720,1.25,0.609,0.031
4/14/2023 12:06:17.730,1.137,0.629,0.094
4/14/2023 12:06:17.740,1.063,0.633,0.129
4/14/2023 12:06:17.750,1.07,0.641,0.137
4/14/2023 12:06:17.760,1.141,0.637,0.113
4/14/2023 12:06:17.770,1.223,0.625,0.063
4/14/2023 12:06:17.780,1.266,0.594,0.012
4/14/2023 12:06:17.790,1.281,0.555,-0.039
4/14/2023 12:06:17.800,1.316,0.508,-0.086
4/14/2023 12:06:17.810,1.391,0.457,-0.137
4/14/2023 12:06:17.820,1.496,0.426,-0.191
4/14/2023 12:06:17.830,1.586,0.41,-0.238
4/14/2023 12:06:17.840,1.621,0.398,-0.27
4/14/2023 12:06:17.850,1.617,0.379,-0.277
4/14/2023 12:06:17.860,1.586,0.348,-0.262
4/14/2023 12:06:17.870,1.543,0.313,-0.23
4/14/2023 12:06:17.880,1.48,0.281,-0.191
4/14/2023 12:06:17.890,1.398,0.27,-0.156
4/14/2023 12:06:17.900,1.305,0.266,-0.121
4/14/2023 12:06:17.910,1.223,0.266,-0.102
4/14/2023 12:06:17.920,1.164,0.277,-0.102
4/14/2023 12:06:17.930,1.145,0.301,-0.113
4/14/2023 12:06:17.940,1.148,0.328,-0.133
4/14/2023 12:06:17.950,1.172,0.352,-0.16
4/14/2023 12:06:17.960,1.207,0.371,-0.184
4/14/2023 12:06:17.970,1.246,0.395,-0.211
4/14/2023 12:06:17.980,1.277,0.402,-0.234
4/14/2023 12:06:17.990,1.293,0.387,-0.246
4/14/2023 12:06:18.000,1.289,0.348,-0.242
4/14/2023 12:06:18.010,1.293,0.313,-0.23
4/14/2023 12:06:18.020,1.297,0.281,-0.223
4/14/2023 12:06:18.030,1.313,0.246,-0.207
4/14/2023 12:06:18.040,1.328,0.199,-0.184
4/14/2023 12:06:18.050,1.32,0.156,-0.164
4/14/2023 12:06:18.060,1.301,0.125,-0.152
4/14/2023 12:06:18.070,1.293,0.094,-0.148
4/14/2023 12:06:18.080,1.297,0.063,-0.141
4/14/2023 12:06:18.090,1.281,0.008,-0.117
4/14/2023 12:06:18.100,1.234,-0.051,-0.098
4/14/2023 12:06:18.110,1.195,-0.063,-0.105
4/14/2023 12:06:18.120,1.156,-0.043,-0.125
4/14/2023 12:06:18.130,1.117,-0.039,-0.152
4/14/2023 12:06:18.140,1.074,-0.078,-0.168
4/14/2023 12:06:18.150,1.012,-0.121,-0.164
4/14/2023 12:06:18.160,0.938,-0.148,-0.152
4/14/2023 12:06:18.170,0.875,-0.164,-0.141
4/14/2023 12:06:18.180,0.859,-0.148,-0.125
4/14/2023 12:06:18.190,0.871,-0.113,-0.105
4/14/2023 12:06:18.200,0.848,-0.078,-0.102
4/14/2023 12:06:18.210,0.773,-0.047,-0.09
4/14/2023 12:06:18.220,0.688,-0.035,-0.063
4/14/2023 12:06:18.230,0.629,-0.035,-0.027
4/14/2023 12:06:18.240,0.641,-0.02,0.008
4/14/2023 12:06:18.250,0.707,0.031,0.02
4/14/2023 12:06:18.260,0.793,0.102,0.023
4/14/2023 12:06:18.270,0.867,0.148,0.027
4/14/2023 12:06:18.280,0.949,0.156,0.031
4/14/2023 12:06:18.290,1.039,0.16,0.031
4/14/2023 12:06:18.300,1.141,0.156,0.027
4/14/2023 12:06:18.310,1.25,0.152,0.016
4/14/2023 12:06:18.320,1.344,0.117,0.004
4/14/2023 12:06:18.330,1.406,0.078,-0.02
4/14/2023 12:06:18.340,1.457,0.047,-0.059
4/14/2023 12:06:18.350,1.512,0.027,-0.102
4/14/2023 12:06:18.360,1.539,0.043,-0.129
4/14/2023 12:06:18.370,1.531,0.059,-0.129
4/14/2023 12:06:18.380,1.512,0.094,-0.133
4/14/2023 12:06:18.390,1.508,0.156,-0.148
4/14/2023 12:06:18.400,1.52,0.254,-0.168
4/14/2023 12:06:18.410,1.539,0.363,-0.195
4/14/2023 12:06:18.420,1.531,0.469,-0.227
4/14/2023 12:06:18.430,1.5,0.555,-0.254
4/14/2023 12:06:18.440,1.461,0.613,-0.285
4/14/2023 12:06:18.450,1.43,0.664,-0.309
4/14/2023 12:06:18.460,1.387,0.676,-0.328
4/14/2023 12:06:18.470,1.34,0.672,-0.336
4/14/2023 12:06:18.480,1.289,0.656,-0.332
4/14/2023 12:06:18.490,1.234,0.652,-0.316
4/14/2023 12:06:18.500,1.18,0.656,-0.289
4/14/2023 12:06:18.510,1.141,0.668,-0.258
4/14/2023 12:06:18.520,1.09,0.68,-0.223
4/14/2023 12:06:18.530,1.039,0.684,-0.191
4/14/2023 12:06:18.540,0.996,0.688,-0.168
4/14/2023 12:06:18.550,0.977,0.691,-0.148
4/14/2023 12:06:18.560,0.977,0.691,-0.137
4/14/2023 12:06:18.570,0.996,0.68,-0.133
4/14/2023 12:06:18.580,1.031,0.656,-0.129
4/14/2023 12:06:18.590,1.074,0.625,-0.133
4/14/2023 12:06:18.600,1.113,0.586,-0.141
4/14/2023 12:06:18.610,1.152,0.551,-0.145
4/14/2023 12:06:18.620,1.18,0.512,-0.152
4/14/2023 12:06:18.630,1.203,0.496,-0.156
4/14/2023 12:06:18.640,1.227,0.492,-0.152
4/14/2023 12:06:18.650,1.234,0.512,-0.145
4/14/2023 12:06:18.660,1.227,0.547,-0.133
4/14/2023 12:06:18.670,1.203,0.59,-0.113
4/14/2023 12:06:18.680,1.16,0.637,-0.098
4/14/2023 12:06:18.690,1.133,0.688,-0.094
4/14/2023 12:06:18.700,1.148,0.75,-0.074
4/14/2023 12:06:18.710,1.172,0.805,-0.027
4/14/2023 12:06:18.720,1.137,0.836,0.035
4/14/2023 12:06:18.730,1.078,0.852,0.078
4/14/2023 12:06:18.740,1.043,0.859,0.09
4/14/2023 12:06:18.750,1.082,0.84,0.082
4/14/2023 12:06:18.760,1.199,0.785,0.055
4/14/2023 12:06:18.770,1.328,0.703,0.035
4/14/2023 12:06:18.780,1.426,0.613,0
4/14/2023 12:06:18.790,1.469,0.52,-0.031
4/14/2023 12:06:18.800,1.488,0.434,-0.074
4/14/2023 12:06:18.810,1.512,0.363,-0.133
4/14/2023 12:06:18.820,1.555,0.324,-0.199
4/14/2023 12:06:18.830,1.617,0.297,-0.254
4/14/2023 12:06:18.840,1.656,0.27,-0.293
4/14/2023 12:06:18.850,1.656,0.234,-0.309
4/14/2023 12:06:18.860,1.66,0.207,-0.316
4/14/2023 12:06:18.870,1.672,0.188,-0.305
4/14/2023 12:06:18.880,1.66,0.18,-0.273
4/14/2023 12:06:18.890,1.598,0.199,-0.234
4/14/2023 12:06:18.900,1.484,0.219,-0.188
4/14/2023 12:06:18.910,1.359,0.246,-0.148
4/14/2023 12:06:18.920,1.266,0.277,-0.129
4/14/2023 12:06:18.930,1.199,0.316,-0.121
4/14/2023 12:06:18.940,1.16,0.355,-0.125
4/14/2023 12:06:18.950,1.16,0.387,-0.137
4/14/2023 12:06:18.960,1.176,0.398,-0.145
4/14/2023 12:06:18.970,1.207,0.398,-0.148
4/14/2023 12:06:18.980,1.23,0.391,-0.148
4/14/2023 12:06:18.990,1.242,0.379,-0.156
4/14/2023 12:06:19.000,1.234,0.352,-0.172
4/14/2023 12:06:19.010,1.266,0.313,-0.172
4/14/2023 12:06:19.020,1.297,0.266,-0.172
4/14/2023 12:06:19.030,1.309,0.223,-0.164
4/14/2023 12:06:19.040,1.301,0.184,-0.156
4/14/2023 12:06:19.050,1.273,0.105,-0.148
4/14/2023 12:06:19.060,1.23,-0.012,-0.137
4/14/2023 12:06:19.070,1.18,-0.145,-0.125
4/14/2023 12:06:19.080,1.141,-0.289,-0.113
4/14/2023 12:06:19.090,1.102,-0.441,-0.113
4/14/2023 12:06:19.100,1.063,-0.586,-0.145
4/14/2023 12:06:19.110,1.043,-0.688,-0.184
4/14/2023 12:06:19.120,1.02,-0.734,-0.211
4/14/2023 12:06:19.130,0.973,-0.715,-0.246
4/14/2023 12:06:19.140,0.91,-0.641,-0.281
4/14/2023 12:06:19.150,0.867,-0.508,-0.316
4/14/2023 12:06:19.160,0.832,-0.34,-0.336
4/14/2023 12:06:19.170,0.777,-0.172,-0.316
4/14/2023 12:06:19.180,0.734,-0.035,-0.258
4/14/2023 12:06:19.190,0.734,0.066,-0.18
4/14/2023 12:06:19.200,0.789,0.129,-0.133
4/14/2023 12:06:19.210,0.832,0.16,-0.109
4/14/2023 12:06:19.220,0.844,0.172,-0.082
4/14/2023 12:06:19.230,0.859,0.184,-0.059
4/14/2023 12:06:19.240,0.922,0.207,-0.059
4/14/2023 12:06:19.250,1.016,0.242,-0.066
4/14/2023 12:06:19.260,1.121,0.266,-0.094
4/14/2023 12:06:19.270,1.219,0.281,-0.102
4/14/2023 12:06:19.280,1.293,0.281,-0.082
4/14/2023 12:06:19.290,1.371,0.258,-0.047
4/14/2023 12:06:19.300,1.469,0.23,-0.016
4/14/2023 12:06:19.310,1.582,0.176,0.016
4/14/2023 12:06:19.320,1.695,0.078,0.039
4/14/2023 12:06:19.330,1.758,-0.043,0.043
4/14/2023 12:06:19.340,1.801,-0.141,0.023
4/14/2023 12:06:19.350,1.824,-0.16,-0.039
4/14/2023 12:06:19.360,1.828,-0.09,-0.113
4/14/2023 12:06:19.370,1.793,0.012,-0.176
4/14/2023 12:06:19.380,1.691,0.113,-0.203
4/14/2023 12:06:19.390,1.551,0.199,-0.199
4/14/2023 12:06:19.400,1.434,0.273,-0.207
4/14/2023 12:06:19.410,1.344,0.355,-0.215
4/14/2023 12:06:19.420,1.285,0.438,-0.215
4/14/2023 12:06:19.430,1.234,0.52,-0.211
4/14/2023 12:06:19.440,1.18,0.559,-0.199
4/14/2023 12:06:19.450,1.117,0.563,-0.188
4/14/2023 12:06:19.460,1.074,0.551,-0.172
4/14/2023 12:06:19.470,1.055,0.535,-0.152
4/14/2023 12:06:19.480,1.039,0.527,-0.129
4/14/2023 12:06:19.490,1.016,0.516,-0.098
4/14/2023 12:06:19.500,0.977,0.516,-0.055
4/14/2023 12:06:19.510,0.953,0.535,0
4/14/2023 12:06:19.520,0.93,0.574,0.039
4/14/2023 12:06:19.530,0.922,0.613,0.07
4/14/2023 12:06:19.540,0.949,0.648,0.082
4/14/2023 12:06:19.550,0.988,0.672,0.074
4/14/2023 12:06:19.560,1.031,0.703,0.055
4/14/2023 12:06:19.570,1.074,0.734,0.031
4/14/2023 12:06:19.580,1.105,0.766,0.008
4/14/2023 12:06:19.590,1.133,0.789,-0.02
4/14/2023 12:06:19.600,1.152,0.809,-0.039
4/14/2023 12:06:19.610,1.16,0.828,-0.051
4/14/2023 12:06:19.620,1.156,0.844,-0.082
4/14/2023 12:06:19.630,1.16,0.859,-0.109
4/14/2023 12:06:19.640,1.164,0.852,-0.109
4/14/2023 12:06:19.650,1.152,0.805,-0.09
4/14/2023 12:06:19.660,1.129,0.707,-0.082
4/14/2023 12:06:19.670,1.145,0.582,-0.07
4/14/2023 12:06:19.680,1.234,0.469,-0.051
4/14/2023 12:06:19.690,1.34,0.375,-0.023
4/14/2023 12:06:19.700,1.391,0.32,-0.012
4/14/2023 12:06:19.710,1.383,0.293,-0.016
4/14/2023 12:06:19.720,1.375,0.254,-0.023
4/14/2023 12:06:19.730,1.391,0.223,-0.043
4/14/2023 12:06:19.740,1.422,0.184,-0.078
4/14/2023 12:06:19.750,1.441,0.168,-0.141
4/14/2023 12:06:19.760,1.449,0.188,-0.219
4/14/2023 12:06:19.770,1.457,0.246,-0.297
4/14/2023 12:06:19.780,1.48,0.316,-0.367
4/14/2023 12:06:19.790,1.539,0.383,-0.422
4/14/2023 12:06:19.800,1.594,0.43,-0.453
4/14/2023 12:06:19.810,1.613,0.465,-0.465
4/14/2023 12:06:19.820,1.594,0.504,-0.453
4/14/2023 12:06:19.830,1.543,0.547,-0.422
4/14/2023 12:06:19.840,1.477,0.59,-0.375
4/14/2023 12:06:19.850,1.402,0.617,-0.324
4/14/2023 12:06:19.860,1.32,0.617,-0.281
4/14/2023 12:06:19.870,1.227,0.598,-0.246
4/14/2023 12:06:19.880,1.152,0.559,-0.234
4/14/2023 12:06:19.890,1.086,0.508,-0.227
4/14/2023 12:06:19.900,1.039,0.449,-0.223
4/14/2023 12:06:19.910,1.016,0.395,-0.23
4/14/2023 12:06:19.920,1.016,0.352,-0.246
4/14/2023 12:06:19.930,1.031,0.324,-0.27
4/14/2023 12:06:19.940,1.07,0.309,-0.293
4/14/2023 12:06:19.950,1.102,0.289,-0.316
4/14/2023 12:06:19.960,1.129,0.273,-0.328
4/14/2023 12:06:19.970,1.156,0.25,-0.328
4/14/2023 12:06:19.980,1.188,0.211,-0.316
4/14/2023 12:06:19.990,1.223,0.152,-0.293
4/14/2023 12:06:20.000,1.238,0.078,-0.277
4/14/2023 12:06:20.010,1.242,-0.02,-0.25
4/14/2023 12:06:20.020,1.215,-0.133,-0.23
4/14/2023 12:06:20.030,1.16,-0.25,-0.207
4/14/2023 12:06:20.040,1.086,-0.371,-0.172
4/14/2023 12:06:20.050,1.016,-0.477,-0.145
4/14/2023 12:06:20.060,0.961,-0.527,-0.125
4/14/2023 12:06:20.070,0.934,-0.512,-0.109
4/14/2023 12:06:20.080,0.941,-0.441,-0.113
4/14/2023 12:06:20.090,0.973,-0.367,-0.141
4/14/2023 12:06:20.100,0.996,-0.328,-0.176
4/14/2023 12:06:20.110,1.016,-0.305,-0.211
4/14/2023 12:06:20.120,1.008,-0.281,-0.242
4/14/2023 12:06:20.130,0.973,-0.254,-0.25
4/14/2023 12:06:20.140,0.961,-0.203,-0.234
4/14/2023 12:06:20.150,1.008,-0.133,-0.227
4/14/2023 12:06:20.160,1.082,-0.059,-0.227
4/14/2023 12:06:20.170,1.094,-0.004,-0.223
4/14/2023 12:06:20.180,1.055,0.035,-0.199
4/14/2023 12:06:20.190,1.02,0.09,-0.172
4/14/2023 12:06:20.200,1.02,0.156,-0.129
4/14/2023 12:06:20.210,1.082,0.207,-0.082
4/14/2023 12:06:20.220,1.148,0.219,-0.035
4/14/2023 12:06:20.230,1.199,0.23,0.016
4/14/2023 12:06:20.240,1.246,0.246,0.055
4/14/2023 12:06:20.250,1.301,0.254,0.074
4/14/2023 12:06:20.260,1.371,0.227,0.07
4/14/2023 12:06:20.270,1.473,0.176,0.055
4/14/2023 12:06:20.280,1.574,0.102,0.02
4/14/2023 12:06:20.290,1.645,0.063,-0.023
4/14/2023 12:06:20.300,1.656,0.066,-0.063
4/14/2023 12:06:20.310,1.621,0.105,-0.09
4/14/2023 12:06:20.320,1.555,0.156,-0.102
4/14/2023 12:06:20.330,1.465,0.184,-0.098
4/14/2023 12:06:20.340,1.375,0.223,-0.086
4/14/2023 12:06:20.350,1.277,0.258,-0.074
4/14/2023 12:06:20.360,1.195,0.277,-0.086
4/14/2023 12:06:20.370,1.254,0.148,0.078
4/14/2023 12:06:20.380,1.336,0.148,-0.074
4/14/2023 12:06:20.390,1.285,0.75,-0.25
4/14/2023 12:06:20.400,0.973,1.004,-0.105
4/14/2023 12:06:20.410,0.758,0.699,-0.023
4/14/2023 12:06:20.420,0.754,0.344,-0.059
4/14/2023 12:06:20.430,0.836,0.23,-0.07
4/14/2023 12:06:20.440,0.922,0.324,-0.117
4/14/2023 12:06:20.450,0.957,0.418,-0.148
4/14/2023 12:06:20.460,0.945,0.469,-0.133
4/14/2023 12:06:20.470,0.918,0.488,-0.113
4/14/2023 12:06:20.480,0.934,0.492,-0.102
4/14/2023 12:06:20.490,0.965,0.492,-0.09
4/14/2023 12:06:20.500,0.984,0.492,-0.094
4/14/2023 12:06:20.510,1.012,0.496,-0.094
4/14/2023 12:06:20.520,1.043,0.523,-0.113
4/14/2023 12:06:20.530,1.082,0.535,-0.129
4/14/2023 12:06:20.540,1.125,0.543,-0.152
4/14/2023 12:06:20.550,1.168,0.555,-0.164
4/14/2023 12:06:20.560,1.199,0.574,-0.176
4/14/2023 12:06:20.570,1.219,0.621,-0.172
4/14/2023 12:06:20.580,1.234,0.672,-0.164
4/14/2023 12:06:20.590,1.238,0.727,-0.168
4/14/2023 12:06:20.600,1.211,0.785,-0.172
4/14/2023 12:06:20.610,1.168,0.867,-0.188
4/14/2023 12:06:20.620,1.137,0.945,-0.184
4/14/2023 12:06:20.630,1.156,1,-0.164
4/14/2023 12:06:20.640,1.203,0.996,-0.117
4/14/2023 12:06:20.650,1.227,0.902,-0.063
4/14/2023 12:06:20.660,1.191,0.781,-0.027
4/14/2023 12:06:20.670,1.148,0.66,-0.02
4/14/2023 12:06:20.680,1.148,0.563,-0.027
4/14/2023 12:06:20.690,1.234,0.496,-0.047
4/14/2023 12:06:20.700,1.34,0.465,-0.059
4/14/2023 12:06:20.710,1.43,0.457,-0.086
4/14/2023 12:06:20.720,1.43,0.449,-0.117
4/14/2023 12:06:20.730,1.453,0.422,-0.141
4/14/2023 12:06:20.740,1.5,0.414,-0.211
4/14/2023 12:06:20.750,1.555,0.43,-0.27
4/14/2023 12:06:20.760,1.578,0.434,-0.316
4/14/2023 12:06:20.770,1.578,0.426,-0.34
4/14/2023 12:06:20.780,1.57,0.418,-0.348
4/14/2023 12:06:20.790,1.551,0.398,-0.324
4/14/2023 12:06:20.800,1.512,0.363,-0.297
4/14/2023 12:06:20.810,1.457,0.324,-0.25
4/14/2023 12:06:20.820,1.379,0.293,-0.203
4/14/2023 12:06:20.830,1.289,0.281,-0.168
4/14/2023 12:06:20.840,1.227,0.281,-0.148
4/14/2023 12:06:20.850,1.188,0.293,-0.137
4/14/2023 12:06:20.860,1.156,0.297,-0.141
4/14/2023 12:06:20.870,1.141,0.301,-0.156
4/14/2023 12:06:20.880,1.133,0.293,-0.172
4/14/2023 12:06:20.890,1.133,0.289,-0.188
4/14/2023 12:06:20.900,1.137,0.289,-0.199
4/14/2023 12:06:20.910,1.148,0.289,-0.199
4/14/2023 12:06:20.920,1.156,0.285,-0.195
4/14/2023 12:06:20.930,1.156,0.277,-0.184
4/14/2023 12:06:20.940,1.148,0.273,-0.176
4/14/2023 12:06:20.950,1.152,0.262,-0.16
4/14/2023 12:06:20.960,1.16,0.227,-0.152
4/14/2023 12:06:20.970,1.156,0.18,-0.145
4/14/2023 12:06:20.980,1.133,0.113,-0.133
4/14/2023 12:06:20.990,1.102,0.027,-0.113
4/14/2023 12:06:21.000,1.066,-0.063,-0.09
4/14/2023 12:06:21.010,1.063,-0.141,-0.063
4/14/2023 12:06:21.020,1.082,-0.199,-0.047
4/14/2023 12:06:21.030,1.094,-0.246,-0.051
4/14/2023 12:06:21.040,1.098,-0.277,-0.047
4/14/2023 12:06:21.050,1.078,-0.301,-0.055
4/14/2023 12:06:21.060,1.047,-0.293,-0.07
4/14/2023 12:06:21.070,1,-0.266,-0.086
4/14/2023 12:06:21.080,0.941,-0.234,-0.086
4/14/2023 12:06:21.090,0.863,-0.219,-0.074
4/14/2023 12:06:21.100,0.781,-0.18,-0.047
4/14/2023 12:06:21.110,0.762,-0.121,-0.012
4/14/2023 12:06:21.120,0.813,-0.039,0.008
4/14/2023 12:06:21.130,0.875,0.027,0.012
4/14/2023 12:06:21.140,0.91,0.063,0.02
4/14/2023 12:06:21.150,0.926,0.066,0.016
4/14/2023 12:06:21.160,0.984,0.078,-0.004
4/14/2023 12:06:21.170,1.082,0.098,-0.027
4/14/2023 12:06:21.180,1.184,0.117,-0.047
4/14/2023 12:06:21.190,1.23,0.148,-0.051
4/14/2023 12:06:21.200,1.23,0.176,-0.043
4/14/2023 12:06:21.210,1.254,0.195,-0.031
4/14/2023 12:06:21.220,1.313,0.203,-0.023
4/14/2023 12:06:21.230,1.391,0.203,0.004
4/14/2023 12:06:21.240,1.445,0.199,0.035
4/14/2023 12:06:21.250,1.473,0.199,0.051
4/14/2023 12:06:21.260,1.496,0.195,0.043
4/14/2023 12:06:21.270,1.527,0.199,0.02
4/14/2023 12:06:21.280,1.551,0.199,-0.031
4/14/2023 12:06:21.290,1.551,0.18,-0.059
4/14/2023 12:06:21.300,1.516,0.156,-0.059
4/14/2023 12:06:21.310,1.441,0.148,-0.055
4/14/2023 12:06:21.320,1.371,0.16,-0.055
4/14/2023 12:06:21.330,1.309,0.203,-0.055
4/14/2023 12:06:21.340,1.234,0.234,-0.055
4/14/2023 12:06:21.350,1.16,0.266,-0.063
4/14/2023 12:06:21.360,1.109,0.316,-0.066
4/14/2023 12:06:21.370,1.078,0.359,-0.07
4/14/2023 12:06:21.380,1.059,0.402,-0.066
4/14/2023 12:06:21.390,1.063,0.445,-0.07
4/14/2023 12:06:21.400,1.078,0.484,-0.066
4/14/2023 12:06:21.410,1.09,0.531,-0.059
4/14/2023 12:06:21.420,1.094,0.574,-0.039
4/14/2023 12:06:21.430,1.09,0.605,-0.027
4/14/2023 12:06:21.440,1.074,0.621,-0.016
4/14/2023 12:06:21.450,1.059,0.625,0
4/14/2023 12:06:21.460,1.055,0.625,0.008
4/14/2023 12:06:21.470,1.063,0.621,0.008
4/14/2023 12:06:21.480,1.098,0.621,0
4/14/2023 12:06:21.490,1.145,0.633,-0.008
4/14/2023 12:06:21.500,1.168,0.648,-0.027
4/14/2023 12:06:21.510,1.188,0.676,-0.043
4/14/2023 12:06:21.520,1.188,0.723,-0.063
4/14/2023 12:06:21.530,1.188,0.777,-0.09
4/14/2023 12:06:21.540,1.188,0.828,-0.113
4/14/2023 12:06:21.550,1.188,0.859,-0.117
4/14/2023 12:06:21.560,1.164,0.84,-0.121
4/14/2023 12:06:21.570,1.117,0.793,-0.121
4/14/2023 12:06:21.580,1.102,0.766,-0.133
4/14/2023 12:06:21.590,1.168,0.777,-0.133
4/14/2023 12:06:21.600,1.297,0.805,-0.105
4/14/2023 12:06:21.610,1.379,0.805,-0.07
4/14/2023 12:06:21.620,1.363,0.785,-0.055
4/14/2023 12:06:21.630,1.309,0.754,-0.051
4/14/2023 12:06:21.640,1.293,0.723,-0.063
4/14/2023 12:06:21.650,1.332,0.684,-0.078
4/14/2023 12:06:21.660,1.387,0.633,-0.098
4/14/2023 12:06:21.670,1.406,0.59,-0.105
4/14/2023 12:06:21.680,1.391,0.551,-0.125
4/14/2023 12:06:21.690,1.398,0.516,-0.168
4/14/2023 12:06:21.700,1.445,0.488,-0.227
4/14/2023 12:06:21.710,1.547,0.469,-0.289
4/14/2023 12:06:21.720,1.633,0.445,-0.344
4/14/2023 12:06:21.730,1.688,0.41,-0.379
4/14/2023 12:06:21.740,1.703,0.371,-0.387
4/14/2023 12:06:21.750,1.695,0.34,-0.383
4/14/2023 12:06:21.760,1.652,0.297,-0.352
4/14/2023 12:06:21.770,1.566,0.266,-0.309
4/14/2023 12:06:21.780,1.461,0.246,-0.262
4/14/2023 12:06:21.790,1.344,0.23,-0.203
4/14/2023 12:06:21.800,1.227,0.215,-0.164
4/14/2023 12:06:21.810,1.125,0.223,-0.148
4/14/2023 12:06:21.820,1.047,0.254,-0.141
4/14/2023 12:06:21.830,1.016,0.301,-0.129
4/14/2023 12:06:21.840,1.02,0.336,-0.117
4/14/2023 12:06:21.850,1.066,0.359,-0.117
4/14/2023 12:06:21.860,1.129,0.375,-0.137
4/14/2023 12:06:21.870,1.203,0.34,-0.176
4/14/2023 12:06:21.880,1.238,0.195,-0.203
4/14/2023 12:06:21.890,1.188,-0.039,-0.191
4/14/2023 12:06:21.900,1.09,-0.289,-0.156
4/14/2023 12:06:21.910,0.988,-0.488,-0.105
4/14/2023 12:06:21.920,0.914,-0.559,-0.047
4/14/2023 12:06:21.930,0.891,-0.484,-0.012
4/14/2023 12:06:21.940,0.883,-0.344,0.004
4/14/2023 12:06:21.950,0.875,-0.223,0.02
4/14/2023 12:06:21.960,0.887,-0.148,0.012
4/14/2023 12:06:21.970,0.902,-0.113,-0.012
4/14/2023 12:06:21.980,0.938,-0.109,-0.027
4/14/2023 12:06:21.990,0.977,-0.125,-0.043
4/14/2023 12:06:22.000,1.008,-0.145,-0.059
4/14/2023 12:06:22.010,1.039,-0.168,-0.059
4/14/2023 12:06:22.020,1.059,-0.207,-0.07
4/14/2023 12:06:22.030,1.051,-0.246,-0.082
4/14/2023 12:06:22.040,1.035,-0.273,-0.078
4/14/2023 12:06:22.050,1.035,-0.277,-0.07
4/14/2023 12:06:22.060,1.098,-0.23,-0.074
4/14/2023 12:06:22.070,1.188,-0.164,-0.098
4/14/2023 12:06:22.080,1.25,-0.094,-0.129
4/14/2023 12:06:22.090,1.27,-0.039,-0.141
4/14/2023 12:06:22.100,1.246,0.012,-0.137
4/14/2023 12:06:22.110,1.242,0.066,-0.129
4/14/2023 12:06:22.120,1.289,0.129,-0.133
4/14/2023 12:06:22.130,1.316,0.184,-0.133
4/14/2023 12:06:22.140,1.301,0.215,-0.105
4/14/2023 12:06:22.150,1.277,0.242,-0.078
4/14/2023 12:06:22.160,1.277,0.262,-0.055
4/14/2023 12:06:22.170,1.336,0.277,-0.043
4/14/2023 12:06:22.180,1.406,0.277,-0.043
4/14/2023 12:06:22.190,1.453,0.254,-0.047
4/14/2023 12:06:22.200,1.461,0.234,-0.047
4/14/2023 12:06:22.210,1.441,0.219,-0.051
4/14/2023 12:06:22.220,1.418,0.211,-0.043
4/14/2023 12:06:22.230,1.387,0.207,-0.031
4/14/2023 12:06:22.240,1.336,0.191,-0.012
4/14/2023 12:06:22.250,1.281,0.156,0.012
4/14/2023 12:06:22.260,1.23,0.121,0.016
4/14/2023 12:06:22.270,1.203,0.098,0.004
4/14/2023 12:06:22.280,1.195,0.078,-0.02
4/14/2023 12:06:22.290,1.203,0.078,-0.051
4/14/2023 12:06:22.300,1.203,0.121,-0.09
4/14/2023 12:06:22.310,1.207,0.184,-0.117
4/14/2023 12:06:22.320,1.188,0.234,-0.141
4/14/2023 12:06:22.330,1.16,0.281,-0.152
4/14/2023 12:06:22.340,1.141,0.332,-0.16
4/14/2023 12:06:22.350,1.145,0.375,-0.156
4/14/2023 12:06:22.360,1.152,0.418,-0.148
4/14/2023 12:06:22.370,1.137,0.465,-0.125
4/14/2023 12:06:22.380,1.102,0.512,-0.086
4/14/2023 12:06:22.390,1.063,0.563,-0.055
4/14/2023 12:06:22.400,1.035,0.605,-0.035
4/14/2023 12:06:22.410,1.012,0.633,-0.027
4/14/2023 12:06:22.420,1.016,0.641,-0.027
4/14/2023 12:06:22.430,1.031,0.637,-0.035
4/14/2023 12:06:22.440,1.051,0.633,-0.035
4/14/2023 12:06:22.450,1.07,0.641,-0.035
4/14/2023 12:06:22.460,1.086,0.652,-0.039
4/14/2023 12:06:22.470,1.102,0.68,-0.059
4/14/2023 12:06:22.480,1.129,0.699,-0.078
4/14/2023 12:06:22.490,1.164,0.723,-0.105
4/14/2023 12:06:22.500,1.191,0.75,-0.137
4/14/2023 12:06:22.510,1.203,0.754,-0.152
4/14/2023 12:06:22.520,1.184,0.742,-0.156
4/14/2023 12:06:22.530,1.129,0.691,-0.152
4/14/2023 12:06:22.540,1.086,0.637,-0.152
4/14/2023 12:06:22.550,1.109,0.598,-0.148
4/14/2023 12:06:22.560,1.203,0.605,-0.109
4/14/2023 12:06:22.570,1.293,0.617,-0.059
4/14/2023 12:06:22.580,1.32,0.629,-0.008
4/14/2023 12:06:22.590,1.309,0.633,0.023
4/14/2023 12:06:22.600,1.309,0.629,0.023
4/14/2023 12:06:22.610,1.367,0.613,-0.004
4/14/2023 12:06:22.620,1.457,0.586,-0.055
4/14/2023 12:06:22.630,1.523,0.547,-0.113
4/14/2023 12:06:22.640,1.523,0.488,-0.156
4/14/2023 12:06:22.650,1.5,0.418,-0.191
4/14/2023 12:06:22.660,1.488,0.355,-0.227
4/14/2023 12:06:22.670,1.508,0.305,-0.266
4/14/2023 12:06:22.680,1.539,0.258,-0.297
4/14/2023 12:06:22.690,1.551,0.234,-0.301
4/14/2023 12:06:22.700,1.523,0.227,-0.281
4/14/2023 12:06:22.710,1.48,0.227,-0.25
4/14/2023 12:06:22.720,1.418,0.234,-0.211
4/14/2023 12:06:22.730,1.344,0.25,-0.172
4/14/2023 12:06:22.740,1.262,0.266,-0.145
4/14/2023 12:06:22.750,1.188,0.281,-0.125
4/14/2023 12:06:22.760,1.117,0.289,-0.117
4/14/2023 12:06:22.770,1.07,0.297,-0.113
4/14/2023 12:06:22.780,1.043,0.285,-0.109
4/14/2023 12:06:22.790,1.031,0.277,-0.109
4/14/2023 12:06:22.800,1.027,0.27,-0.109
4/14/2023 12:06:22.810,1.035,0.27,-0.102
4/14/2023 12:06:22.820,1.066,0.262,-0.09
4/14/2023 12:06:22.830,1.102,0.246,-0.082
4/14/2023 12:06:22.840,1.121,0.23,-0.09
4/14/2023 12:06:22.850,1.117,0.215,-0.098
4/14/2023 12:06:22.860,1.102,0.188,-0.109
4/14/2023 12:06:22.870,1.086,0.148,-0.129
4/14/2023 12:06:22.880,1.086,0.102,-0.133
4/14/2023 12:06:22.890,1.102,0.066,-0.125
4/14/2023 12:06:22.900,1.133,0.031,-0.117
4/14/2023 12:06:22.910,1.16,0,-0.109
4/14/2023 12:06:22.920,1.188,-0.039,-0.109
4/14/2023 12:06:22.930,1.211,-0.086,-0.125
4/14/2023 12:06:22.940,1.223,-0.148,-0.156
4/14/2023 12:06:22.950,1.203,-0.195,-0.188
4/14/2023 12:06:22.960,1.168,-0.227,-0.215
4/14/2023 12:06:22.970,1.129,-0.227,-0.234
4/14/2023 12:06:22.980,1.082,-0.23,-0.254
4/14/2023 12:06:22.990,1.031,-0.238,-0.277
4/14/2023 12:06:23.000,0.957,-0.227,-0.285
4/14/2023 12:06:23.010,0.895,-0.195,-0.266
4/14/2023 12:06:23.020,0.809,-0.141,-0.238
4/14/2023 12:06:23.030,0.766,-0.066,-0.172
4/14/2023 12:06:23.040,0.785,0.027,-0.105
4/14/2023 12:06:23.050,0.809,0.105,-0.055
4/14/2023 12:06:23.060,0.805,0.16,-0.023
4/14/2023 12:06:23.070,0.809,0.184,0
4/14/2023 12:06:23.080,0.867,0.168,0.016
4/14/2023 12:06:23.090,0.984,0.164,0.043
4/14/2023 12:06:23.100,1.109,0.207,0.07
4/14/2023 12:06:23.110,1.195,0.277,0.09
4/14/2023 12:06:23.120,1.23,0.34,0.094
4/14/2023 12:06:23.130,1.223,0.34,0.066
4/14/2023 12:06:23.140,1.238,0.25,0.027
4/14/2023 12:06:23.150,1.293,0.039,-0.012
4/14/2023 12:06:23.160,1.391,-0.211,-0.027
4/14/2023 12:06:23.170,1.484,-0.387,-0.004
4/14/2023 12:06:23.180,1.512,-0.496,0.031
4/14/2023 12:06:23.190,1.496,-0.543,0.027
4/14/2023 12:06:23.200,1.477,-0.555,0.004
4/14/2023 12:06:23.210,1.488,-0.539,-0.031
4/14/2023 12:06:23.220,1.512,-0.473,-0.055
4/14/2023 12:06:23.230,1.523,-0.371,-0.066
4/14/2023 12:06:23.240,1.523,-0.254,-0.078
4/14/2023 12:06:23.250,1.508,-0.145,-0.094
4/14/2023 12:06:23.260,1.496,-0.047,-0.117
4/14/2023 12:06:23.270,1.48,0.047,-0.156
4/14/2023 12:06:23.280,1.453,0.148,-0.203
4/14/2023 12:06:23.290,1.41,0.25,-0.25
4/14/2023 12:06:23.300,1.359,0.336,-0.289
4/14/2023 12:06:23.310,1.305,0.391,-0.297
4/14/2023 12:06:23.320,1.273,0.41,-0.277
4/14/2023 12:06:23.330,1.254,0.406,-0.242
4/14/2023 12:06:23.340,1.258,0.395,-0.211
4/14/2023 12:06:23.350,1.266,0.406,-0.188
4/14/2023 12:06:23.360,1.281,0.457,-0.18
4/14/2023 12:06:23.370,1.285,0.547,-0.184
4/14/2023 12:06:23.380,1.273,0.656,-0.156
4/14/2023 12:06:23.390,1.227,0.77,-0.117
4/14/2023 12:06:23.400,1.164,0.879,-0.086
4/14/2023 12:06:23.410,1.121,0.988,-0.066
4/14/2023 12:06:23.420,1.105,1.082,-0.074
4/14/2023 12:06:23.430,1.141,1.094,-0.082
4/14/2023 12:06:23.440,1.234,0.98,-0.098
4/14/2023 12:06:23.450,1.328,0.824,-0.098
4/14/2023 12:06:23.460,1.402,0.684,-0.098
4/14/2023 12:06:23.470,1.43,0.605,-0.109
4/14/2023 12:06:23.480,1.395,0.609,-0.113
4/14/2023 12:06:23.490,1.293,0.645,-0.113
4/14/2023 12:06:23.500,1.191,0.676,-0.117
4/14/2023 12:06:23.510,1.176,0.719,-0.117
4/14/2023 12:06:23.520,1.27,0.762,-0.094
4/14/2023 12:06:23.530,1.391,0.781,-0.039
4/14/2023 12:06:23.540,1.391,0.754,0.004
4/14/2023 12:06:23.550,1.27,0.715,0.012
4/14/2023 12:06:23.560,1.176,0.652,-0.004
4/14/2023 12:06:23.570,1.184,0.594,-0.023
4/14/2023 12:06:23.580,1.254,0.531,-0.051
4/14/2023 12:06:23.590,1.309,0.449,-0.082
4/14/2023 12:06:23.600,1.355,0.387,-0.109
4/14/2023 12:06:23.610,1.43,0.344,-0.133
4/14/2023 12:06:23.620,1.539,0.309,-0.152
4/14/2023 12:06:23.630,1.664,0.285,-0.191
4/14/2023 12:06:23.640,1.773,0.281,-0.242
4/14/2023 12:06:23.650,1.84,0.289,-0.301
4/14/2023 12:06:23.660,1.855,0.301,-0.34
4/14/2023 12:06:23.670,1.832,0.32,-0.367
4/14/2023 12:06:23.680,1.805,0.348,-0.383
4/14/2023 12:06:23.690,1.766,0.359,-0.387
4/14/2023 12:06:23.700,1.73,0.355,-0.375
4/14/2023 12:06:23.710,1.676,0.336,-0.363
4/14/2023 12:06:23.720,1.605,0.32,-0.355
4/14/2023 12:06:23.730,1.527,0.32,-0.352
4/14/2023 12:06:23.740,1.465,0.328,-0.348
4/14/2023 12:06:23.750,1.41,0.328,-0.363
4/14/2023 12:06:23.760,1.398,0.336,-0.387
4/14/2023 12:06:23.770,1.398,0.344,-0.402
4/14/2023 12:06:23.780,1.395,0.328,-0.41
4/14/2023 12:06:23.790,1.379,0.281,-0.391
4/14/2023 12:06:23.800,1.348,0.219,-0.359
4/14/2023 12:06:23.810,1.313,0.141,-0.313
4/14/2023 12:06:23.820,1.258,0.055,-0.281
4/14/2023 12:06:23.830,1.18,-0.051,-0.234
4/14/2023 12:06:23.840,1.086,-0.156,-0.184
4/14/2023 12:06:23.850,0.98,-0.242,-0.137
4/14/2023 12:06:23.860,0.879,-0.305,-0.094
4/14/2023 12:06:23.870,0.809,-0.344,-0.051
4/14/2023 12:06:23.880,0.777,-0.367,-0.016
4/14/2023 12:06:23.890,0.777,-0.375,-0.004
4/14/2023 12:06:23.900,0.793,-0.375,0.004
4/14/2023 12:06:23.910,0.836,-0.352,-0.004
4/14/2023 12:06:23.920,0.891,-0.309,-0.031
4/14/2023 12:06:23.930,0.949,-0.242,-0.063
4/14/2023 12:06:23.940,0.992,-0.191,-0.098
4/14/2023 12:06:23.950,1.027,-0.156,-0.129
4/14/2023 12:06:23.960,1.035,-0.137,-0.156
4/14/2023 12:06:23.970,1.016,-0.121,-0.168
4/14/2023 12:06:23.980,0.969,-0.109,-0.168
4/14/2023 12:06:23.990,0.914,-0.098,-0.152
4/14/2023 12:06:24.000,0.887,-0.078,-0.121
4/14/2023 12:06:24.010,0.926,-0.039,-0.066
4/14/2023 12:06:24.020,0.945,0,-0.027
4/14/2023 12:06:24.030,0.977,0.008,-0.012
4/14/2023 12:06:24.040,1.055,0.016,-0.004
4/14/2023 12:06:24.050,1.117,0.059,-0.004
4/14/2023 12:06:24.060,1.148,0.078,-0.012
4/14/2023 12:06:24.070,1.168,0.082,-0.012
4/14/2023 12:06:24.080,1.195,0.09,-0.004
4/14/2023 12:06:24.090,1.23,0.113,0.012
4/14/2023 12:06:24.100,1.277,0.129,0.02
4/14/2023 12:06:24.110,1.332,0.129,0.008
4/14/2023 12:06:24.120,1.422,0.109,-0.012
4/14/2023 12:06:24.130,1.52,0.09,-0.043
4/14/2023 12:06:24.140,1.594,0.082,-0.078
4/14/2023 12:06:24.150,1.645,0.098,-0.121
4/14/2023 12:06:24.160,1.672,0.133,-0.164
4/14/2023 12:06:24.170,1.66,0.168,-0.188
4/14/2023 12:06:24.180,1.625,0.199,-0.195
4/14/2023 12:06:24.190,1.574,0.238,-0.18
4/14/2023 12:06:24.200,1.527,0.27,-0.148
4/14/2023 12:06:24.210,1.484,0.293,-0.113
4/14/2023 12:06:24.220,1.434,0.355,-0.078
4/14/2023 12:06:24.230,1.383,0.422,-0.059
4/14/2023 12:06:24.240,1.344,0.52,-0.059
4/14/2023 12:06:24.250,1.281,0.625,-0.059
4/14/2023 12:06:24.260,1.188,0.648,-0.059
4/14/2023 12:06:24.270,1.098,0.566,-0.039
4/14/2023 12:06:24.280,1.039,0.445,0.004
4/14/2023 12:06:24.290,1.016,0.328,0.059
4/14/2023 12:06:24.300,1.02,0.227,0.109
4/14/2023 12:06:24.310,1.039,0.133,0.148
4/14/2023 12:06:24.320,1.078,0.09,0.184
4/14/2023 12:06:24.330,1.121,0.113,0.219
4/14/2023 12:06:24.340,1.16,0.188,0.258
4/14/2023 12:06:24.350,1.156,0.281,0.285
4/14/2023 12:06:24.360,1.141,0.375,0.297
4/14/2023 12:06:24.370,1.121,0.434,0.297
4/14/2023 12:06:24.380,1.121,0.449,0.277
4/14/2023 12:06:24.390,1.145,0.453,0.238
4/14/2023 12:06:24.400,1.18,0.469,0.191
4/14/2023 12:06:24.410,1.227,0.496,0.148
4/14/2023 12:06:24.420,1.254,0.512,0.105
4/14/2023 12:06:24.430,1.281,0.527,0.066
4/14/2023 12:06:24.440,1.309,0.535,0.027
4/14/2023 12:06:24.450,1.328,0.551,0.004
4/14/2023 12:06:24.460,1.32,0.578,-0.016
4/14/2023 12:06:24.470,1.262,0.598,-0.02
4/14/2023 12:06:24.480,1.195,0.617,-0.02
4/14/2023 12:06:24.490,1.18,0.633,0
4/14/2023 12:06:24.500,1.227,0.664,0.039
4/14/2023 12:06:24.510,1.277,0.695,0.094
4/14/2023 12:06:24.520,1.273,0.734,0.129
4/14/2023 12:06:24.530,1.25,0.777,0.141
4/14/2023 12:06:24.540,1.254,0.797,0.137
4/14/2023 12:06:24.550,1.328,0.77,0.109
4/14/2023 12:06:24.560,1.434,0.715,0.051
4/14/2023 12:06:24.570,1.508,0.656,-0.016
4/14/2023 12:06:24.580,1.539,0.57,-0.066
4/14/2023 12:06:24.590,1.582,0.457,-0.117
4/14/2023 12:06:24.600,1.641,0.332,-0.16
4/14/2023 12:06:24.610,1.703,0.207,-0.199
4/14/2023 12:06:24.620,1.746,0.086,-0.242
4/14/2023 12:06:24.630,1.754,0,-0.273
4/14/2023 12:06:24.640,1.75,-0.043,-0.293
4/14/2023 12:06:24.650,1.781,-0.063,-0.297
4/14/2023 12:06:24.660,1.824,-0.07,-0.266
4/14/2023 12:06:24.670,1.82,-0.063,-0.23
4/14/2023 12:06:24.680,1.734,-0.008,-0.191
4/14/2023 12:06:24.690,1.59,0.09,-0.141
4/14/2023 12:06:24.700,1.438,0.191,-0.094
4/14/2023 12:06:24.710,1.324,0.27,-0.063
4/14/2023 12:06:24.720,1.285,0.313,-0.031
4/14/2023 12:06:24.730,1.32,0.32,-0.008
4/14/2023 12:06:24.740,1.383,0.289,-0.016
4/14/2023 12:06:24.750,1.414,0.238,-0.051
4/14/2023 12:06:24.760,1.418,0.207,-0.09
4/14/2023 12:06:24.770,1.41,0.172,-0.133
4/14/2023 12:06:24.780,1.383,0.113,-0.164
4/14/2023 12:06:24.790,1.344,0.031,-0.18
4/14/2023 12:06:24.800,1.289,-0.066,-0.168
4/14/2023 12:06:24.810,1.215,-0.148,-0.148
4/14/2023 12:06:24.820,1.109,-0.227,-0.133
4/14/2023 12:06:24.830,1,-0.313,-0.105
4/14/2023 12:06:24.840,0.902,-0.398,-0.066
4/14/2023 12:06:24.850,0.848,-0.473,-0.02
4/14/2023 12:06:24.860,0.832,-0.504,0.031
4/14/2023 12:06:24.870,0.844,-0.5,0.078
4/14/2023 12:06:24.880,0.887,-0.469,0.113
4/14/2023 12:06:24.890,0.926,-0.422,0.109
4/14/2023 12:06:24.900,0.953,-0.363,0.066
4/14/2023 12:06:24.910,0.965,-0.324,0.016
4/14/2023 12:06:24.920,0.93,-0.316,-0.035
4/14/2023 12:06:24.930,0.867,-0.336,-0.059
4/14/2023 12:06:24.940,0.797,-0.348,-0.063
4/14/2023 12:06:24.950,0.762,-0.328,-0.047
4/14/2023 12:06:24.960,0.82,-0.266,-0.039
4/14/2023 12:06:24.970,0.918,-0.164,-0.039
4/14/2023 12:06:24.980,0.961,-0.066,-0.055
4/14/2023 12:06:24.990,0.984,-0.027,-0.074
4/14/2023 12:06:25.000,1.023,-0.008,-0.082
4/14/2023 12:06:25.010,1.086,0,-0.074
4/14/2023 12:06:25.020,1.148,0.023,-0.066
4/14/2023 12:06:25.030,1.191,0.063,-0.063
4/14/2023 12:06:25.040,1.211,0.094,-0.066
4/14/2023 12:06:25.050,1.234,0.125,-0.066
4/14/2023 12:06:25.060,1.273,0.148,-0.055
4/14/2023 12:06:25.070,1.324,0.164,-0.031
4/14/2023 12:06:25.080,1.379,0.18,0.008
4/14/2023 12:06:25.090,1.418,0.211,0.055
4/14/2023 12:06:25.100,1.438,0.227,0.086
4/14/2023 12:06:25.110,1.469,0.23,0.094
4/14/2023 12:06:25.120,1.496,0.223,0.078
4/14/2023 12:06:25.130,1.516,0.207,0.051
4/14/2023 12:06:25.140,1.531,0.18,0.02
4/14/2023 12:06:25.150,1.539,0.133,0
4/14/2023 12:06:25.160,1.527,0.094,-0.012
4/14/2023 12:06:25.170,1.492,0.074,-0.027
4/14/2023 12:06:25.180,1.461,0.082,-0.051
4/14/2023 12:06:25.190,1.438,0.117,-0.082
4/14/2023 12:06:25.200,1.414,0.18,-0.094
4/14/2023 12:06:25.210,1.379,0.242,-0.094
4/14/2023 12:06:25.220,1.352,0.297,-0.094
4/14/2023 12:06:25.230,1.332,0.344,-0.078
4/14/2023 12:06:25.240,1.324,0.391,-0.047
4/14/2023 12:06:25.250,1.313,0.445,-0.016
4/14/2023 12:06:25.260,1.297,0.516,0.016
4/14/2023 12:06:25.270,1.289,0.594,0.043
4/14/2023 12:06:25.280,1.293,0.66,0.059
4/14/2023 12:06:25.290,1.297,0.703,0.063
4/14/2023 12:06:25.300,1.289,0.715,0.063
4/14/2023 12:06:25.310,1.273,0.707,0.051
4/14/2023 12:06:25.320,1.277,0.691,0.039
4/14/2023 12:06:25.330,1.293,0.68,0.031
4/14/2023 12:06:25.340,1.305,0.672,0.023
4/14/2023 12:06:25.350,1.305,0.652,0.02
4/14/2023 12:06:25.360,1.293,0.641,0.016
4/14/2023 12:06:25.370,1.289,0.637,0.016
4/14/2023 12:06:25.380,1.281,0.637,0.016
4/14/2023 12:06:25.390,1.254,0.637,0.016
4/14/2023 12:06:25.400,1.211,0.637,0.008
4/14/2023 12:06:25.410,1.164,0.645,-0.004
4/14/2023 12:06:25.420,1.188,0.68,0.004
4/14/2023 12:06:25.430,1.238,0.699,0.035
4/14/2023 12:06:25.440,1.262,0.68,0.063
4/14/2023 12:06:25.450,1.227,0.641,0.078
4/14/2023 12:06:25.460,1.191,0.613,0.074
4/14/2023 12:06:25.470,1.203,0.602,0.066
4/14/2023 12:06:25.480,1.262,0.582,0.043
4/14/2023 12:06:25.490,1.332,0.559,0.016
4/14/2023 12:06:25.500,1.379,0.535,-0.012
4/14/2023 12:06:25.510,1.426,0.508,-0.063
4/14/2023 12:06:25.520,1.461,0.477,-0.125
4/14/2023 12:06:25.530,1.527,0.453,-0.191
4/14/2023 12:06:25.540,1.617,0.43,-0.266
4/14/2023 12:06:25.550,1.684,0.406,-0.32
4/14/2023 12:06:25.560,1.707,0.383,-0.344
4/14/2023 12:06:25.570,1.688,0.348,-0.363
4/14/2023 12:06:25.580,1.641,0.313,-0.359
4/14/2023 12:06:25.590,1.563,0.293,-0.336
4/14/2023 12:06:25.600,1.473,0.285,-0.297
4/14/2023 12:06:25.610,1.387,0.289,-0.254
4/14/2023 12:06:25.620,1.305,0.293,-0.211
4/14/2023 12:06:25.630,1.23,0.305,-0.176
4/14/2023 12:06:25.640,1.18,0.32,-0.168
4/14/2023 12:06:25.650,1.145,0.332,-0.176
4/14/2023 12:06:25.660,1.125,0.332,-0.195
4/14/2023 12:06:25.670,1.113,0.332,-0.227
4/14/2023 12:06:25.680,1.109,0.328,-0.246
4/14/2023 12:06:25.690,1.121,0.316,-0.254
4/14/2023 12:06:25.700,1.129,0.305,-0.246
4/14/2023 12:06:25.710,1.148,0.305,-0.23
4/14/2023 12:06:25.720,1.156,0.281,-0.211
4/14/2023 12:06:25.730,1.152,0.238,-0.199
4/14/2023 12:06:25.740,1.141,0.168,-0.184
4/14/2023 12:06:25.750,1.141,0.102,-0.152
4/14/2023 12:06:25.760,1.133,0.031,-0.117
4/14/2023 12:06:25.770,1.117,-0.039,-0.07
4/14/2023 12:06:25.780,1.09,-0.117,-0.023
4/14/2023 12:06:25.790,1.082,-0.18,0.016
4/14/2023 12:06:25.800,1.078,-0.227,0.047
4/14/2023 12:06:25.810,1.07,-0.258,0.066
4/14/2023 12:06:25.820,1.043,-0.281,0.078
4/14/2023 12:06:25.830,1.016,-0.281,0.063
4/14/2023 12:06:25.840,0.98,-0.281,0.027
4/14/2023 12:06:25.850,0.949,-0.305,-0.023
4/14/2023 12:06:25.860,0.91,-0.313,-0.078
4/14/2023 12:06:25.870,0.875,-0.313,-0.117
4/14/2023 12:06:25.880,0.859,-0.305,-0.137
4/14/2023 12:06:25.890,0.883,-0.262,-0.145
4/14/2023 12:06:25.900,0.93,-0.188,-0.164
4/14/2023 12:06:25.910,0.953,-0.117,-0.207
4/14/2023 12:06:25.920,0.945,-0.059,-0.238
4/14/2023 12:06:25.930,0.922,0.004,-0.262
4/14/2023 12:06:25.940,0.918,0.078,-0.25
4/14/2023 12:06:25.950,0.965,0.152,-0.227
4/14/2023 12:06:25.960,1.035,0.184,-0.199
4/14/2023 12:06:25.970,1.102,0.188,-0.168
4/14/2023 12:06:25.980,1.176,0.191,-0.137
4/14/2023 12:06:25.990,1.254,0.191,-0.094
4/14/2023 12:06:26.000,1.328,0.172,-0.059
4/14/2023 12:06:26.010,1.418,0.141,-0.02
4/14/2023 12:06:26.020,1.469,0.098,-0.004
4/14/2023 12:06:26.030,1.488,0.039,-0.004
4/14/2023 12:06:26.040,1.488,-0.008,-0.02
4/14/2023 12:06:26.050,1.473,-0.043,-0.043
4/14/2023 12:06:26.060,1.438,-0.047,-0.063
4/14/2023 12:06:26.070,1.391,-0.039,-0.07
4/14/2023 12:06:26.080,1.336,-0.02,-0.074
4/14/2023 12:06:26.090,1.289,0.004,-0.07
4/14/2023 12:06:26.100,1.246,0.035,-0.059
4/14/2023 12:06:26.110,1.227,0.082,-0.055
4/14/2023 12:06:26.120,1.203,0.152,-0.066
4/14/2023 12:06:26.130,1.18,0.238,-0.074
4/14/2023 12:06:26.140,1.195,0.316,-0.066
4/14/2023 12:06:26.150,1.285,0.242,0.117
4/14/2023 12:06:26.160,1.223,0.035,0.156
4/14/2023 12:06:26.170,1.133,0.199,-0.105
4/14/2023 12:06:26.180,1.082,0.637,-0.215
4/14/2023 12:06:26.190,1.012,0.914,-0.313
4/14/2023 12:06:26.200,0.957,0.895,-0.383
4/14/2023 12:06:26.210,0.945,0.695,-0.367
4/14/2023 12:06:26.220,0.977,0.465,-0.324
4/14/2023 12:06:26.230,1.02,0.301,-0.254
4/14/2023 12:06:26.240,1.074,0.234,-0.191
4/14/2023 12:06:26.250,1.113,0.211,-0.16
4/14/2023 12:06:26.260,1.156,0.188,-0.156
4/14/2023 12:06:26.270,1.215,0.152,-0.184
4/14/2023 12:06:26.280,1.27,0.125,-0.199
4/14/2023 12:06:26.290,1.324,0.148,-0.215
4/14/2023 12:06:26.300,1.352,0.211,-0.23
4/14/2023 12:06:26.310,1.363,0.293,-0.25
4/14/2023 12:06:26.320,1.375,0.387,-0.254
4/14/2023 12:06:26.330,1.383,0.496,-0.27
4/14/2023 12:06:26.340,1.363,0.594,-0.289
4/14/2023 12:06:26.350,1.328,0.695,-0.328
4/14/2023 12:06:26.360,1.32,0.793,-0.355
4/14/2023 12:06:26.370,1.379,0.855,-0.32
4/14/2023 12:06:26.380,1.465,0.824,-0.223
4/14/2023 12:06:26.390,1.5,0.707,-0.133
4/14/2023 12:06:26.400,1.457,0.59,-0.074
4/14/2023 12:06:26.410,1.383,0.504,-0.055
4/14/2023 12:06:26.420,1.348,0.473,-0.063
4/14/2023 12:06:26.430,1.352,0.473,-0.086
4/14/2023 12:06:26.440,1.359,0.477,-0.102
4/14/2023 12:06:26.450,1.348,0.461,-0.117
4/14/2023 12:06:26.460,1.336,0.43,-0.137
4/14/2023 12:06:26.470,1.34,0.406,-0.172
4/14/2023 12:06:26.480,1.375,0.395,-0.211
4/14/2023 12:06:26.490,1.43,0.402,-0.25
4/14/2023 12:06:26.500,1.477,0.41,-0.289
4/14/2023 12:06:26.510,1.516,0.406,-0.305
4/14/2023 12:06:26.520,1.52,0.398,-0.301
4/14/2023 12:06:26.530,1.496,0.383,-0.285
4/14/2023 12:06:26.540,1.445,0.359,-0.246
4/14/2023 12:06:26.550,1.371,0.348,-0.203
4/14/2023 12:06:26.560,1.293,0.336,-0.168
4/14/2023 12:06:26.570,1.219,0.313,-0.141
4/14/2023 12:06:26.580,1.164,0.293,-0.121
4/14/2023 12:06:26.590,1.133,0.262,-0.113
4/14/2023 12:06:26.600,1.121,0.242,-0.117
4/14/2023 12:06:26.610,1.113,0.219,-0.133
4/14/2023 12:06:26.620,1.109,0.215,-0.156
4/14/2023 12:06:26.630,1.113,0.203,-0.176
4/14/2023 12:06:26.640,1.125,0.195,-0.199
4/14/2023 12:06:26.650,1.156,0.184,-0.219
4/14/2023 12:06:26.660,1.203,0.156,-0.227
4/14/2023 12:06:26.670,1.242,0.117,-0.23
4/14/2023 12:06:26.680,1.289,0.094,-0.227
4/14/2023 12:06:26.690,1.332,0.074,-0.223
4/14/2023 12:06:26.700,1.352,0.059,-0.227
4/14/2023 12:06:26.710,1.352,0.027,-0.23
4/14/2023 12:06:26.720,1.328,-0.031,-0.23
4/14/2023 12:06:26.730,1.289,-0.102,-0.227
4/14/2023 12:06:26.740,1.238,-0.172,-0.227
4/14/2023 12:06:26.750,1.207,-0.254,-0.238
4/14/2023 12:06:26.760,1.188,-0.328,-0.258
4/14/2023 12:06:26.770,1.156,-0.383,-0.289
4/14/2023 12:06:26.780,1.102,-0.41,-0.313
4/14/2023 12:06:26.790,1.027,-0.398,-0.336
4/14/2023 12:06:26.800,0.945,-0.344,-0.352
4/14/2023 12:06:26.810,0.855,-0.285,-0.348
4/14/2023 12:06:26.820,0.766,-0.23,-0.328
4/14/2023 12:06:26.830,0.664,-0.184,-0.277
4/14/2023 12:06:26.840,0.578,-0.137,-0.203
4/14/2023 12:06:26.850,0.578,-0.086,-0.125
4/14/2023 12:06:26.860,0.652,-0.031,-0.086
4/14/2023 12:06:26.870,0.742,-0.02,-0.086
4/14/2023 12:06:26.880,0.813,-0.02,-0.098
4/14/2023 12:06:26.890,0.887,0.004,-0.105
4/14/2023 12:06:26.900,0.98,0.035,-0.121
4/14/2023 12:06:26.910,1.113,0.043,-0.148
4/14/2023 12:06:26.920,1.234,0.039,-0.172
4/14/2023 12:06:26.930,1.297,0.043,-0.172
4/14/2023 12:06:26.940,1.297,0.059,-0.152
4/14/2023 12:06:26.950,1.297,0.094,-0.125
4/14/2023 12:06:26.960,1.328,0.129,-0.078
4/14/2023 12:06:26.970,1.371,0.16,-0.016
4/14/2023 12:06:26.980,1.395,0.18,0.063
4/14/2023 12:06:26.990,1.395,0.191,0.125
4/14/2023 12:06:27.000,1.391,0.191,0.156
4/14/2023 12:06:27.010,1.43,0.148,0.152
4/14/2023 12:06:27.020,1.484,0.109,0.117
4/14/2023 12:06:27.030,1.508,0.074,0.09
4/14/2023 12:06:27.040,1.496,0.055,0.074
4/14/2023 12:06:27.050,1.457,0.059,0.07
4/14/2023 12:06:27.060,1.418,0.078,0.066
4/14/2023 12:06:27.070,1.367,0.117,0.055
4/14/2023 12:06:27.080,1.328,0.152,0.035
4/14/2023 12:06:27.090,1.34,0.172,0.082
4/14/2023 12:06:27.100,1.324,0.07,0.152
4/14/2023 12:06:27.110,1.254,0.074,0.043
4/14/2023 12:06:27.120,1.191,0.301,-0.109
4/14/2023 12:06:27.130,1.156,0.586,-0.176
4/14/2023 12:06:27.140,1.148,0.723,-0.176
4/14/2023 12:06:27.150,1.137,0.688,-0.133
4/14/2023 12:06:27.160,1.125,0.621,-0.07
4/14/2023 12:06:27.170,1.113,0.609,-0.027
4/14/2023 12:06:27.180,1.102,0.617,-0.004
4/14/2023 12:06:27.190,1.098,0.629,-0.004
4/14/2023 12:06:27.200,1.102,0.641,-0.008
4/14/2023 12:06:27.210,1.117,0.66,-0.016
4/14/2023 12:06:27.220,1.141,0.672,-0.023
4/14/2023 12:06:27.230,1.168,0.688,-0.031
4/14/2023 12:06:27.240,1.188,0.707,-0.043
4/14/2023 12:06:27.250,1.191,0.73,-0.059
4/14/2023 12:06:27.260,1.195,0.746,-0.078
4/14/2023 12:06:27.270,1.199,0.746,-0.098
4/14/2023 12:06:27.280,1.191,0.73,-0.113
4/14/2023 12:06:27.290,1.18,0.699,-0.117
4/14/2023 12:06:27.300,1.168,0.668,-0.133
4/14/2023 12:06:27.310,1.188,0.656,-0.141
4/14/2023 12:06:27.320,1.273,0.672,-0.129
4/14/2023 12:06:27.330,1.367,0.668,-0.094
4/14/2023 12:06:27.340,1.406,0.648,-0.063
4/14/2023 12:06:27.350,1.375,0.648,-0.035
4/14/2023 12:06:27.360,1.324,0.648,-0.02
4/14/2023 12:06:27.370,1.32,0.641,-0.023
4/14/2023 12:06:27.380,1.359,0.629,-0.039
4/14/2023 12:06:27.390,1.398,0.617,-0.07
4/14/2023 12:06:27.400,1.418,0.594,-0.105
4/14/2023 12:06:27.410,1.426,0.559,-0.148
4/14/2023 12:06:27.420,1.453,0.52,-0.199
4/14/2023 12:06:27.430,1.523,0.477,-0.258
4/14/2023 12:06:27.440,1.609,0.441,-0.297
4/14/2023 12:06:27.450,1.664,0.41,-0.32
4/14/2023 12:06:27.460,1.668,0.363,-0.332
4/14/2023 12:06:27.470,1.641,0.32,-0.324
4/14/2023 12:06:27.480,1.582,0.293,-0.301
4/14/2023 12:06:27.490,1.496,0.277,-0.27
4/14/2023 12:06:27.500,1.383,0.273,-0.238
4/14/2023 12:06:27.510,1.266,0.27,-0.195
4/14/2023 12:06:27.520,1.168,0.27,-0.172
4/14/2023 12:06:27.530,1.094,0.277,-0.16
4/14/2023 12:06:27.540,1.051,0.285,-0.156
4/14/2023 12:06:27.550,1.027,0.301,-0.16
4/14/2023 12:06:27.560,1.031,0.305,-0.172
4/14/2023 12:06:27.570,1.059,0.305,-0.18
4/14/2023 12:06:27.580,1.094,0.301,-0.191
4/14/2023 12:06:27.590,1.129,0.289,-0.195
4/14/2023 12:06:27.600,1.156,0.273,-0.188
4/14/2023 12:06:27.610,1.168,0.25,-0.184
4/14/2023 12:06:27.620,1.18,0.215,-0.18
4/14/2023 12:06:27.630,1.195,0.16,-0.176
4/14/2023 12:06:27.640,1.227,0.086,-0.168
4/14/2023 12:06:27.650,1.25,-0.008,-0.152
4/14/2023 12:06:27.660,1.246,-0.113,-0.137
4/14/2023 12:06:27.670,1.207,-0.211,-0.129
4/14/2023 12:06:27.680,1.156,-0.309,-0.129
4/14/2023 12:06:27.690,1.113,-0.391,-0.141
4/14/2023 12:06:27.700,1.082,-0.43,-0.148
4/14/2023 12:06:27.710,1.055,-0.441,-0.156
4/14/2023 12:06:27.720,1.023,-0.438,-0.172
4/14/2023 12:06:27.730,0.977,-0.461,-0.188
4/14/2023 12:06:27.740,0.926,-0.473,-0.207
4/14/2023 12:06:27.750,0.879,-0.453,-0.219
4/14/2023 12:06:27.760,0.82,-0.402,-0.215
4/14/2023 12:06:27.770,0.75,-0.332,-0.184
4/14/2023 12:06:27.780,0.734,-0.246,-0.121
4/14/2023 12:06:27.790,0.793,-0.145,-0.066
4/14/2023 12:06:27.800,0.867,-0.039,-0.035
4/14/2023 12:06:27.810,0.926,0.02,-0.027
4/14/2023 12:06:27.820,0.984,0.043,-0.039
4/14/2023 12:06:27.830,1.074,0.066,-0.063
4/14/2023 12:06:27.840,1.195,0.098,-0.086
4/14/2023 12:06:27.850,1.32,0.109,-0.113
4/14/2023 12:06:27.860,1.391,0.117,-0.133
4/14/2023 12:06:27.870,1.418,0.129,-0.133
4/14/2023 12:06:27.880,1.434,0.145,-0.117
4/14/2023 12:06:27.890,1.477,0.172,-0.09
4/14/2023 12:06:27.900,1.527,0.199,-0.039
4/14/2023 12:06:27.910,1.57,0.223,0.02
4/14/2023 12:06:27.920,1.574,0.238,0.078
4/14/2023 12:06:27.930,1.57,0.246,0.098
4/14/2023 12:06:27.940,1.574,0.238,0.086
4/14/2023 12:06:27.950,1.59,0.211,0.051
4/14/2023 12:06:27.960,1.59,0.184,0.02
4/14/2023 12:06:27.970,1.555,0.148,0.004
4/14/2023 12:06:27.980,1.488,0.133,-0.004
4/14/2023 12:06:27.990,1.414,0.117,0
4/14/2023 12:06:28.000,1.328,0.109,0.008
4/14/2023 12:06:28.010,1.27,0.121,0.016
4/14/2023 12:06:28.020,1.203,0.145,0.008
4/14/2023 12:06:28.030,1.141,0.18,0
4/14/2023 12:06:28.040,1.098,0.215,-0.02
4/14/2023 12:06:28.050,1.078,0.246,-0.047
4/14/2023 12:06:28.060,1.09,0.277,-0.063
4/14/2023 12:06:28.070,1.105,0.324,-0.066
4/14/2023 12:06:28.080,1.125,0.379,-0.07
4/14/2023 12:06:28.090,1.137,0.434,-0.063
4/14/2023 12:06:28.100,1.141,0.496,-0.051
4/14/2023 12:06:28.110,1.137,0.539,-0.043
4/14/2023 12:06:28.120,1.145,0.578,-0.043
4/14/2023 12:06:28.130,1.145,0.605,-0.039
4/14/2023 12:06:28.140,1.148,0.625,-0.039
4/14/2023 12:06:28.150,1.152,0.641,-0.039
4/14/2023 12:06:28.160,1.16,0.668,-0.039
4/14/2023 12:06:28.170,1.156,0.688,-0.039
4/14/2023 12:06:28.180,1.152,0.703,-0.043
4/14/2023 12:06:28.190,1.16,0.727,-0.055
4/14/2023 12:06:28.200,1.164,0.762,-0.07
4/14/2023 12:06:28.210,1.176,0.785,-0.082
4/14/2023 12:06:28.220,1.18,0.801,-0.09
4/14/2023 12:06:28.230,1.156,0.793,-0.086
4/14/2023 12:06:28.240,1.129,0.766,-0.082
4/14/2023 12:06:28.250,1.152,0.746,-0.066
4/14/2023 12:06:28.260,1.254,0.73,-0.051
4/14/2023 12:06:28.270,1.363,0.715,-0.02
4/14/2023 12:06:28.280,1.414,0.688,0.012
4/14/2023 12:06:28.290,1.398,0.652,0.027
4/14/2023 12:06:28.300,1.367,0.621,0.031
4/14/2023 12:06:28.310,1.391,0.605,0.016
4/14/2023 12:06:28.320,1.453,0.586,-0.016
4/14/2023 12:06:28.330,1.508,0.566,-0.055
4/14/2023 12:06:28.340,1.539,0.531,-0.105
4/14/2023 12:06:28.350,1.563,0.488,-0.176
4/14/2023 12:06:28.360,1.621,0.438,-0.242
4/14/2023 12:06:28.370,1.719,0.391,-0.305
4/14/2023 12:06:28.380,1.816,0.348,-0.363
4/14/2023 12:06:28.390,1.887,0.297,-0.406
4/14/2023 12:06:28.400,1.898,0.242,-0.426
4/14/2023 12:06:28.410,1.875,0.203,-0.418
4/14/2023 12:06:28.420,1.801,0.18,-0.383
4/14/2023 12:06:28.430,1.695,0.16,-0.336
4/14/2023 12:06:28.440,1.574,0.16,-0.281
4/14/2023 12:06:28.450,1.453,0.176,-0.234
4/14/2023 12:06:28.460,1.355,0.211,-0.203
4/14/2023 12:06:28.470,1.281,0.254,-0.184
4/14/2023 12:06:28.480,1.242,0.297,-0.18
4/14/2023 12:06:28.490,1.238,0.332,-0.18
4/14/2023 12:06:28.500,1.25,0.363,-0.18
4/14/2023 12:06:28.510,1.289,0.379,-0.184
4/14/2023 12:06:28.520,1.32,0.391,-0.195
4/14/2023 12:06:28.530,1.348,0.387,-0.211
4/14/2023 12:06:28.540,1.355,0.363,-0.227
4/14/2023 12:06:28.550,1.363,0.324,-0.242
4/14/2023 12:06:28.560,1.359,0.242,-0.25
4/14/2023 12:06:28.570,1.344,0.137,-0.238
4/14/2023 12:06:28.580,1.305,0.02,-0.215
4/14/2023 12:06:28.590,1.246,-0.094,-0.18
4/14/2023 12:06:28.600,1.191,-0.207,-0.148
4/14/2023 12:06:28.610,1.129,-0.309,-0.125
4/14/2023 12:06:28.620,1.09,-0.383,-0.113
4/14/2023 12:06:28.630,1.059,-0.414,-0.105
4/14/2023 12:06:28.640,1.027,-0.438,-0.109
4/14/2023 12:06:28.650,0.996,-0.426,-0.113
4/14/2023 12:06:28.660,0.961,-0.402,-0.129
4/14/2023 12:06:28.670,0.926,-0.387,-0.148
4/14/2023 12:06:28.680,0.883,-0.387,-0.172
4/14/2023 12:06:28.690,0.836,-0.367,-0.191
4/14/2023 12:06:28.700,0.773,-0.324,-0.195
4/14/2023 12:06:28.710,0.703,-0.266,-0.172
4/14/2023 12:06:28.720,0.66,-0.199,-0.125
4/14/2023 12:06:28.730,0.668,-0.117,-0.078
4/14/2023 12:06:28.740,0.711,-0.031,-0.055
4/14/2023 12:06:28.750,0.723,0.016,-0.043
4/14/2023 12:06:28.760,0.734,0.027,-0.043
