------------ Data File Created By ActiGraph GT3X+ ActiLife v6.13.4 Firmware v1.7.2 date format M/d/yyyy at 100 Hz  Filter Normal -----------
Serial Number: TAS1H50200609
Start Time 16:05:00
Start Date 4/21/2023
Epoch Period (hh:mm:ss) 00:00:00
Download Time 16:20:13
Download Date 4/21/2023
Current Memory Address: 0
Current Battery Voltage: 4.19     Mode = 12
--------------------------------------------------
Timestamp,Accelerometer X,Accelerometer Y,Accelerometer Z
4/21/2023 16:05:00.000,0.93,0.051,-0.188
4/21/2023 16:05:00.010,0.945,0.047,-0.184
4/21/2023 16:05:00.020,0.961,0.047,-0.191
4/21/2023 16:05:00.030,0.965,0.047,-0.188
4/21/2023 16:05:00.040,0.973,0.047,-0.191
4/21/2023 16:05:00.050,0.969,0.051,-0.188
4/21/2023 16:05:00.060,0.969,0.055,-0.184
4/21/2023 16:05:00.070,0.961,0.059,-0.18
4/21/2023 16:05:00.080,0.957,0.059,-0.184
4/21/2023 16:05:00.090,0.941,0.047,-0.191
4/21/2023 16:05:00.100,0.91,-0.023,-0.215
4/21/2023 16:05:00.110,0.969,-0.066,-0.152
4/21/2023 16:05:00.120,1,0.07,-0.094
4/21/2023 16:05:00.130,0.93,0.121,-0.09
4/21/2023 16:05:00.140,0.902,0.09,-0.133
4/21/2023 16:05:00.150,0.934,0.074,-0.156
4/21/2023 16:05:00.160,0.984,0.086,-0.145
4/21/2023 16:05:00.170,1.004,0.098,-0.152
4/21/2023 16:05:00.180,1.004,0.09,-0.141
4/21/2023 16:05:00.190,1.008,0.055,-0.16
4/21/2023 16:05:00.200,1.004,0.004,-0.184
4/21/2023 16:05:00.210,1.012,-0.039,-0.199
4/21/2023 16:05:00.220,1.016,-0.023,-0.23
4/21/2023 16:05:00.230,0.961,0.027,-0.277
4/21/2023 16:05:00.240,0.922,0.086,-0.27
4/21/2023 16:05:00.250,0.922,0.133,-0.242
4/21/2023 16:05:00.260,0.941,0.164,-0.223
4/21/2023 16:05:00.270,0.961,0.168,-0.188
4/21/2023 16:05:00.280,0.984,0.152,-0.145
4/21/2023 16:05:00.290,1.027,0.137,-0.102
4/21/2023 16:05:00.300,1.086,0.109,-0.094
4/21/2023 16:05:00.310,1.129,0.055,-0.109
4/21/2023 16:05:00.320,1.145,-0.027,-0.145
4/21/2023 16:05:00.330,1.121,-0.121,-0.184
4/21/2023 16:05:00.340,1.102,-0.195,-0.223
4/21/2023 16:05:00.350,1.094,-0.266,-0.258
4/21/2023 16:05:00.360,1.105,-0.289,-0.309
4/21/2023 16:05:00.370,1.172,-0.223,-0.34
4/21/2023 16:05:00.380,1.27,-0.145,-0.441
4/21/2023 16:05:00.390,1.449,-0.066,-0.629
4/21/2023 16:05:00.400,1.664,0.039,-0.883
4/21/2023 16:05:00.410,1.781,-0.059,-0.984
4/21/2023 16:05:00.420,1.688,-0.234,-0.895
4/21/2023 16:05:00.430,1.465,-0.379,-0.855
4/21/2023 16:05:00.440,1.332,-0.414,-0.734
4/21/2023 16:05:00.450,1.277,-0.465,-0.656
4/21/2023 16:05:00.460,1.246,-0.613,-0.516
4/21/2023 16:05:00.470,1.098,-0.68,-0.387
4/21/2023 16:05:00.480,0.941,-0.672,-0.316
4/21/2023 16:05:00.490,0.828,-0.707,-0.262
4/21/2023 16:05:00.500,0.754,-0.754,-0.219
4/21/2023 16:05:00.510,0.695,-0.754,-0.176
4/21/2023 16:05:00.520,0.633,-0.734,-0.141
4/21/2023 16:05:00.530,0.609,-0.715,-0.105
4/21/2023 16:05:00.540,0.613,-0.68,-0.059
4/21/2023 16:05:00.550,0.633,-0.648,-0.016
4/21/2023 16:05:00.560,0.676,-0.621,0.031
4/21/2023 16:05:00.570,0.734,-0.598,0.082
4/21/2023 16:05:00.580,0.809,-0.582,0.121
4/21/2023 16:05:00.590,0.867,-0.563,0.168
4/21/2023 16:05:00.600,0.91,-0.547,0.199
4/21/2023 16:05:00.610,0.973,-0.527,0.219
4/21/2023 16:05:00.620,1.055,-0.5,0.219
4/21/2023 16:05:00.630,1.133,-0.465,0.191
4/21/2023 16:05:00.640,1.191,-0.414,0.176
4/21/2023 16:05:00.650,1.211,-0.289,0.148
4/21/2023 16:05:00.660,1.223,-0.152,0.098
4/21/2023 16:05:00.670,1.258,-0.051,0.031
4/21/2023 16:05:00.680,1.301,0.02,-0.027
4/21/2023 16:05:00.690,1.344,0.086,-0.059
4/21/2023 16:05:00.700,1.371,0.199,-0.105
4/21/2023 16:05:00.710,1.383,0.34,-0.156
4/21/2023 16:05:00.720,1.383,0.477,-0.211
4/21/2023 16:05:00.730,1.371,0.617,-0.242
4/21/2023 16:05:00.740,1.34,0.734,-0.23
4/21/2023 16:05:00.750,1.305,0.84,-0.172
4/21/2023 16:05:00.760,1.25,0.98,-0.098
4/21/2023 16:05:00.770,1.172,1.141,-0.074
4/21/2023 16:05:00.780,1.105,1.195,-0.109
4/21/2023 16:05:00.790,1.086,1.098,-0.098
4/21/2023 16:05:00.800,1.102,0.965,-0.063
4/21/2023 16:05:00.810,1.125,0.895,-0.063
4/21/2023 16:05:00.820,1.141,0.871,-0.105
4/21/2023 16:05:00.830,1.145,0.82,-0.16
4/21/2023 16:05:00.840,1.141,0.734,-0.207
4/21/2023 16:05:00.850,1.145,0.66,-0.25
4/21/2023 16:05:00.860,1.129,0.605,-0.293
4/21/2023 16:05:00.870,1.113,0.555,-0.316
4/21/2023 16:05:00.880,1.102,0.582,-0.336
4/21/2023 16:05:00.890,1.09,0.676,-0.367
4/21/2023 16:05:00.900,1.086,0.73,-0.41
4/21/2023 16:05:00.910,1.039,0.414,-0.613
4/21/2023 16:05:00.920,0.875,-1.051,-0.957
4/21/2023 16:05:00.930,0.953,-3.238,-0.645
4/21/2023 16:05:00.940,1.059,-2.996,-0.027
4/21/2023 16:05:00.950,1.035,-1.129,0.219
4/21/2023 16:05:00.960,1.207,0.492,0.227
4/21/2023 16:05:00.970,1.141,0.969,-0.066
4/21/2023 16:05:00.980,1.09,0.75,-0.332
4/21/2023 16:05:00.990,1.172,0.324,-0.297
4/21/2023 16:05:01.000,1.066,0.063,-0.309
4/21/2023 16:05:01.010,1.012,0.398,-0.258
4/21/2023 16:05:01.020,1.121,0.707,-0.039
4/21/2023 16:05:01.030,1.238,0.676,0.156
4/21/2023 16:05:01.040,1.207,0.422,0.012
4/21/2023 16:05:01.050,1.09,0.199,-0.215
4/21/2023 16:05:01.060,1.008,0.207,-0.258
4/21/2023 16:05:01.070,0.953,0.254,-0.254
4/21/2023 16:05:01.080,0.941,0.227,-0.195
4/21/2023 16:05:01.090,0.977,0.215,-0.133
4/21/2023 16:05:01.100,1.02,0.176,-0.094
4/21/2023 16:05:01.110,1.055,0.129,-0.129
4/21/2023 16:05:01.120,1.059,0.129,-0.215
4/21/2023 16:05:01.130,1.047,0.156,-0.289
4/21/2023 16:05:01.140,1.031,0.141,-0.285
4/21/2023 16:05:01.150,0.996,0.09,-0.297
4/21/2023 16:05:01.160,0.969,0.047,-0.305
4/21/2023 16:05:01.170,0.969,0,-0.34
4/21/2023 16:05:01.180,0.98,0.008,-0.383
4/21/2023 16:05:01.190,0.988,0.102,-0.367
4/21/2023 16:05:01.200,0.98,0.133,-0.324
4/21/2023 16:05:01.210,0.969,0.148,-0.289
4/21/2023 16:05:01.220,0.957,0.195,-0.262
4/21/2023 16:05:01.230,0.969,0.242,-0.227
4/21/2023 16:05:01.240,1.008,0.27,-0.172
4/21/2023 16:05:01.250,1.051,0.273,-0.148
4/21/2023 16:05:01.260,1.074,0.219,-0.133
4/21/2023 16:05:01.270,1.098,0.203,-0.117
4/21/2023 16:05:01.280,1.094,0.223,-0.164
4/21/2023 16:05:01.290,1.102,0.242,-0.207
4/21/2023 16:05:01.300,1.125,0.25,-0.258
4/21/2023 16:05:01.310,1.152,0.246,-0.301
4/21/2023 16:05:01.320,1.184,0.191,-0.277
4/21/2023 16:05:01.330,1.219,0.082,-0.172
4/21/2023 16:05:01.340,1.246,-0.02,-0.039
4/21/2023 16:05:01.350,1.266,-0.07,0.023
4/21/2023 16:05:01.360,1.309,-0.082,-0.047
4/21/2023 16:05:01.370,1.371,-0.055,-0.199
4/21/2023 16:05:01.380,1.449,-0.051,-0.301
4/21/2023 16:05:01.390,1.535,-0.105,-0.301
4/21/2023 16:05:01.400,1.602,-0.203,-0.25
4/21/2023 16:05:01.410,1.645,-0.293,-0.184
4/21/2023 16:05:01.420,1.672,-0.406,-0.176
4/21/2023 16:05:01.430,1.711,-0.543,-0.258
4/21/2023 16:05:01.440,1.742,-0.703,-0.387
4/21/2023 16:05:01.450,1.738,-0.949,-0.453
4/21/2023 16:05:01.460,1.68,-1.188,-0.555
4/21/2023 16:05:01.470,1.629,-1.121,-0.691
4/21/2023 16:05:01.480,1.77,-0.488,-0.477
4/21/2023 16:05:01.490,2.219,0.191,-0.289
4/21/2023 16:05:01.500,2.469,0.246,-0.531
4/21/2023 16:05:01.510,2.574,0.086,-1.051
4/21/2023 16:05:01.520,2.332,-0.332,-1.254
4/21/2023 16:05:01.530,1.621,-0.152,-1.035
4/21/2023 16:05:01.540,1.223,0.336,-0.844
4/21/2023 16:05:01.550,0.746,0.637,-0.871
4/21/2023 16:05:01.560,0.773,0.453,-0.766
4/21/2023 16:05:01.570,1.02,0,-0.496
4/21/2023 16:05:01.580,1.105,-0.551,-0.461
4/21/2023 16:05:01.590,1.047,-0.809,-0.453
4/21/2023 16:05:01.600,0.848,-0.82,-0.398
4/21/2023 16:05:01.610,0.582,-0.781,-0.184
4/21/2023 16:05:01.620,0.336,-0.727,0.027
4/21/2023 16:05:01.630,0.129,-0.605,0.109
4/21/2023 16:05:01.640,0.059,-0.457,0.063
4/21/2023 16:05:01.650,0.066,-0.387,-0.059
4/21/2023 16:05:01.660,0.129,-0.457,-0.098
4/21/2023 16:05:01.670,0.227,-0.637,-0.047
4/21/2023 16:05:01.680,0.352,-0.816,0.012
4/21/2023 16:05:01.690,0.52,-0.879,0.035
4/21/2023 16:05:01.700,0.703,-0.785,0.02
4/21/2023 16:05:01.710,0.879,-0.605,-0.031
4/21/2023 16:05:01.720,1.004,-0.469,-0.09
4/21/2023 16:05:01.730,1.109,-0.438,-0.102
4/21/2023 16:05:01.740,1.215,-0.492,-0.098
4/21/2023 16:05:01.750,1.363,-0.535,-0.121
4/21/2023 16:05:01.760,1.594,-0.473,-0.129
4/21/2023 16:05:01.770,1.883,-0.328,-0.172
4/21/2023 16:05:01.780,2.191,-0.156,-0.266
4/21/2023 16:05:01.790,2.527,0.063,-0.27
4/21/2023 16:05:01.800,2.895,0.516,-0.137
4/21/2023 16:05:01.810,3.234,1.164,0.016
4/21/2023 16:05:01.820,3.441,1.863,0.074
4/21/2023 16:05:01.830,3.387,2.488,0.109
4/21/2023 16:05:01.840,3.082,2.996,0.117
4/21/2023 16:05:01.850,2.684,3.445,0.051
4/21/2023 16:05:01.860,2.289,3.887,0.004
4/21/2023 16:05:01.870,1.883,4.281,-0.012
4/21/2023 16:05:01.880,1.57,4.453,-0.027
4/21/2023 16:05:01.890,1.555,4.25,-0.098
4/21/2023 16:05:01.900,1.68,3.617,-0.457
4/21/2023 16:05:01.910,1.59,1.797,-0.809
4/21/2023 16:05:01.920,1.684,-2.273,-0.52
4/21/2023 16:05:01.930,2.086,-2.848,0.582
4/21/2023 16:05:01.940,2.199,0.32,0.781
4/21/2023 16:05:01.950,2.484,1.895,0.301
4/21/2023 16:05:01.960,2.469,1.109,-0.336
4/21/2023 16:05:01.970,1.984,0.559,-0.574
4/21/2023 16:05:01.980,1.367,0.438,-0.504
4/21/2023 16:05:01.990,0.742,0.203,-0.336
4/21/2023 16:05:02.000,0.328,0.09,-0.207
4/21/2023 16:05:02.010,0.363,0.18,-0.238
4/21/2023 16:05:02.020,0.59,0.23,-0.457
4/21/2023 16:05:02.030,0.828,0.379,-0.539
4/21/2023 16:05:02.040,0.969,0.387,-0.531
4/21/2023 16:05:02.050,1.012,0.324,-0.426
4/21/2023 16:05:02.060,1.086,0.207,-0.168
4/21/2023 16:05:02.070,1.113,0.047,0.043
4/21/2023 16:05:02.080,1.082,-0.105,0.117
4/21/2023 16:05:02.090,1.074,-0.203,0.117
4/21/2023 16:05:02.100,1.129,-0.195,-0.016
4/21/2023 16:05:02.110,1.145,-0.141,-0.211
4/21/2023 16:05:02.120,1.066,-0.039,-0.289
4/21/2023 16:05:02.130,0.926,0.066,-0.313
4/21/2023 16:05:02.140,0.813,0.148,-0.301
4/21/2023 16:05:02.150,0.789,0.145,-0.27
4/21/2023 16:05:02.160,0.828,0.109,-0.23
4/21/2023 16:05:02.170,0.906,0.145,-0.168
4/21/2023 16:05:02.180,0.988,0.203,-0.148
4/21/2023 16:05:02.190,1.051,0.211,-0.133
4/21/2023 16:05:02.200,1.102,0.176,-0.172
4/21/2023 16:05:02.210,1.109,0.156,-0.246
4/21/2023 16:05:02.220,1.105,0.168,-0.277
4/21/2023 16:05:02.230,1.129,0.168,-0.313
4/21/2023 16:05:02.240,1.16,0.172,-0.309
4/21/2023 16:05:02.250,1.188,0.164,-0.273
4/21/2023 16:05:02.260,1.23,0.141,-0.223
4/21/2023 16:05:02.270,1.227,0.047,-0.188
4/21/2023 16:05:02.280,1.258,-0.008,-0.09
4/21/2023 16:05:02.290,1.328,-0.098,0.039
4/21/2023 16:05:02.300,1.395,-0.184,0
4/21/2023 16:05:02.310,1.477,-0.141,-0.113
4/21/2023 16:05:02.320,1.586,-0.121,-0.18
4/21/2023 16:05:02.330,1.66,-0.156,-0.172
4/21/2023 16:05:02.340,1.691,-0.215,-0.168
4/21/2023 16:05:02.350,1.738,-0.277,-0.203
4/21/2023 16:05:02.360,1.805,-0.344,-0.305
4/21/2023 16:05:02.370,1.84,-0.48,-0.488
4/21/2023 16:05:02.380,1.852,-0.598,-0.625
4/21/2023 16:05:02.390,1.902,-0.883,-0.711
4/21/2023 16:05:02.400,1.926,-1.23,-0.656
4/21/2023 16:05:02.410,1.707,-1.387,-0.574
4/21/2023 16:05:02.420,1.555,-0.938,-0.301
4/21/2023 16:05:02.430,1.945,-0.16,-0.043
4/21/2023 16:05:02.440,2.191,0.051,-0.297
4/21/2023 16:05:02.450,2.211,-0.199,-0.801
4/21/2023 16:05:02.460,2.148,-0.461,-1.199
4/21/2023 16:05:02.470,1.938,-0.27,-1.027
4/21/2023 16:05:02.480,1.297,0.418,-0.93
4/21/2023 16:05:02.490,0.66,0.879,-1.074
4/21/2023 16:05:02.500,0.531,0.566,-1.016
4/21/2023 16:05:02.510,0.953,-0.016,-0.613
4/21/2023 16:05:02.520,1.16,-0.707,-0.461
4/21/2023 16:05:02.530,1.137,-1.047,-0.348
4/21/2023 16:05:02.540,0.938,-1.055,-0.207
4/21/2023 16:05:02.550,0.688,-0.879,-0.105
4/21/2023 16:05:02.560,0.406,-0.656,-0.016
4/21/2023 16:05:02.570,0.164,-0.52,0.023
4/21/2023 16:05:02.580,0.059,-0.488,0.02
4/21/2023 16:05:02.590,0.059,-0.523,-0.016
4/21/2023 16:05:02.600,0.102,-0.559,-0.027
4/21/2023 16:05:02.610,0.156,-0.609,-0.004
4/21/2023 16:05:02.620,0.223,-0.691,-0.012
4/21/2023 16:05:02.630,0.344,-0.75,-0.031
4/21/2023 16:05:02.640,0.52,-0.719,-0.074
4/21/2023 16:05:02.650,0.699,-0.637,-0.125
4/21/2023 16:05:02.660,0.863,-0.578,-0.195
4/21/2023 16:05:02.670,1.023,-0.543,-0.25
4/21/2023 16:05:02.680,1.23,-0.547,-0.254
4/21/2023 16:05:02.690,1.492,-0.531,-0.266
4/21/2023 16:05:02.700,1.809,-0.414,-0.25
4/21/2023 16:05:02.710,2.156,-0.223,-0.188
4/21/2023 16:05:02.720,2.453,0.02,-0.16
4/21/2023 16:05:02.730,2.75,0.402,-0.133
4/21/2023 16:05:02.740,3.145,1.031,-0.133
4/21/2023 16:05:02.750,3.563,1.695,-0.02
4/21/2023 16:05:02.760,3.625,2.234,-0.004
4/21/2023 16:05:02.770,3.363,2.934,0.035
4/21/2023 16:05:02.780,2.965,3.738,0.121
4/21/2023 16:05:02.790,2.488,4.402,0.168
4/21/2023 16:05:02.800,1.965,4.73,0.207
4/21/2023 16:05:02.810,1.613,4.641,0.16
4/21/2023 16:05:02.820,1.621,4.266,-0.063
4/21/2023 16:05:02.830,1.535,3.602,-0.695
4/21/2023 16:05:02.840,1.461,0.484,-1.293
4/21/2023 16:05:02.850,2.129,-2.813,-0.309
4/21/2023 16:05:02.860,2.402,-0.926,0.461
4/21/2023 16:05:02.870,2.316,1.906,0.371
4/21/2023 16:05:02.880,2.301,1.707,-0.316
4/21/2023 16:05:02.890,2,0.813,-0.836
4/21/2023 16:05:02.900,1.582,0.5,-0.52
4/21/2023 16:05:02.910,1.043,0.293,-0.133
4/21/2023 16:05:02.920,0.531,0.055,0.016
4/21/2023 16:05:02.930,0.301,0,0.176
4/21/2023 16:05:02.940,0.379,0.125,-0.063
4/21/2023 16:05:02.950,0.621,0.305,-0.277
4/21/2023 16:05:02.960,0.926,0.387,-0.258
4/21/2023 16:05:02.970,1.078,0.34,-0.359
4/21/2023 16:05:02.980,1.168,0.234,-0.328
4/21/2023 16:05:02.990,1.246,0.188,-0.219
4/21/2023 16:05:03.000,1.242,0.172,-0.07
4/21/2023 16:05:03.010,1.137,0.074,-0.059
4/21/2023 16:05:03.020,1.07,-0.047,-0.063
4/21/2023 16:05:03.030,1.043,-0.074,-0.141
4/21/2023 16:05:03.040,1.031,-0.035,-0.203
4/21/2023 16:05:03.050,0.992,0.02,-0.238
4/21/2023 16:05:03.060,0.934,0.07,-0.223
4/21/2023 16:05:03.070,0.879,0.141,-0.203
4/21/2023 16:05:03.080,0.875,0.18,-0.188
4/21/2023 16:05:03.090,0.93,0.137,-0.168
4/21/2023 16:05:03.100,1.031,0.094,-0.121
4/21/2023 16:05:03.110,1.113,0.141,-0.133
4/21/2023 16:05:03.120,1.164,0.199,-0.148
4/21/2023 16:05:03.130,1.195,0.188,-0.176
4/21/2023 16:05:03.140,1.211,0.184,-0.227
4/21/2023 16:05:03.150,1.207,0.156,-0.211
4/21/2023 16:05:03.160,1.191,0.094,-0.152
4/21/2023 16:05:03.170,1.164,0.047,-0.086
4/21/2023 16:05:03.180,1.133,0.012,-0.078
4/21/2023 16:05:03.190,1.141,0.039,-0.125
4/21/2023 16:05:03.200,1.203,0.07,-0.223
4/21/2023 16:05:03.210,1.258,0.027,-0.227
4/21/2023 16:05:03.220,1.359,-0.047,-0.18
4/21/2023 16:05:03.230,1.48,-0.074,-0.246
4/21/2023 16:05:03.240,1.531,-0.086,-0.301
4/21/2023 16:05:03.250,1.586,-0.191,-0.207
4/21/2023 16:05:03.260,1.652,-0.273,-0.105
4/21/2023 16:05:03.270,1.695,-0.367,-0.141
4/21/2023 16:05:03.280,1.746,-0.484,-0.23
4/21/2023 16:05:03.290,1.805,-0.633,-0.387
4/21/2023 16:05:03.300,1.852,-0.805,-0.531
4/21/2023 16:05:03.310,1.895,-1.047,-0.582
4/21/2023 16:05:03.320,1.844,-1.215,-0.637
4/21/2023 16:05:03.330,1.762,-0.957,-0.551
4/21/2023 16:05:03.340,2.129,-0.207,-0.281
4/21/2023 16:05:03.350,2.457,0.156,-0.414
4/21/2023 16:05:03.360,2.465,-0.039,-0.82
4/21/2023 16:05:03.370,2.469,-0.23,-1.207
4/21/2023 16:05:03.380,2.277,-0.258,-1.172
4/21/2023 16:05:03.390,1.469,0.133,-1.004
4/21/2023 16:05:03.400,0.727,0.586,-1.129
4/21/2023 16:05:03.410,0.723,0.688,-1.164
4/21/2023 16:05:03.420,1.031,0.285,-0.688
4/21/2023 16:05:03.430,1.125,-0.457,-0.473
4/21/2023 16:05:03.440,1.055,-0.914,-0.383
4/21/2023 16:05:03.450,0.832,-0.992,-0.215
4/21/2023 16:05:03.460,0.57,-0.891,-0.016
4/21/2023 16:05:03.470,0.324,-0.742,0.113
4/21/2023 16:05:03.480,0.129,-0.586,0.102
4/21/2023 16:05:03.490,0.09,-0.457,0.074
4/21/2023 16:05:03.500,0.133,-0.391,0.039
4/21/2023 16:05:03.510,0.16,-0.438,-0.039
4/21/2023 16:05:03.520,0.156,-0.574,-0.086
4/21/2023 16:05:03.530,0.188,-0.715,-0.082
4/21/2023 16:05:03.540,0.297,-0.793,-0.063
4/21/2023 16:05:03.550,0.473,-0.793,-0.063
4/21/2023 16:05:03.560,0.676,-0.734,-0.078
4/21/2023 16:05:03.570,0.859,-0.652,-0.109
4/21/2023 16:05:03.580,1.031,-0.566,-0.129
4/21/2023 16:05:03.590,1.215,-0.512,-0.129
4/21/2023 16:05:03.600,1.406,-0.527,-0.113
4/21/2023 16:05:03.610,1.633,-0.531,-0.098
4/21/2023 16:05:03.620,1.91,-0.395,-0.055
4/21/2023 16:05:03.630,2.18,-0.109,-0.066
4/21/2023 16:05:03.640,2.465,0.27,-0.145
4/21/2023 16:05:03.650,2.859,0.82,-0.207
4/21/2023 16:05:03.660,3.359,1.453,-0.254
4/21/2023 16:05:03.670,3.73,2.039,-0.418
4/21/2023 16:05:03.680,3.688,2.723,-0.574
4/21/2023 16:05:03.690,3.266,3.547,-0.543
4/21/2023 16:05:03.700,2.73,4.254,-0.32
4/21/2023 16:05:03.710,2.254,4.613,0.012
4/21/2023 16:05:03.720,1.914,4.688,0.242
4/21/2023 16:05:03.730,1.762,4.578,0.273
4/21/2023 16:05:03.740,1.859,4.289,0.223
4/21/2023 16:05:03.750,2.035,3.133,-0.328
4/21/2023 16:05:03.760,1.699,-0.082,-1.172
4/21/2023 16:05:03.770,1.469,-3.676,-0.723
4/21/2023 16:05:03.780,1.316,-3.168,0.344
4/21/2023 16:05:03.790,1.461,-0.277,1.012
4/21/2023 16:05:03.800,2.172,1.781,1.008
4/21/2023 16:05:03.810,2.336,1.055,0.141
4/21/2023 16:05:03.820,2.156,0.215,-0.18
4/21/2023 16:05:03.830,1.555,0.301,-0.141
4/21/2023 16:05:03.840,0.898,0.441,-0.223
4/21/2023 16:05:03.850,0.613,0.387,-0.457
4/21/2023 16:05:03.860,0.625,0.266,-0.453
4/21/2023 16:05:03.870,0.711,0.316,-0.418
4/21/2023 16:05:03.880,0.828,0.441,-0.578
4/21/2023 16:05:03.890,0.98,0.367,-0.691
4/21/2023 16:05:03.900,1.063,0.27,-0.652
4/21/2023 16:05:03.910,0.992,0.281,-0.559
4/21/2023 16:05:03.920,0.918,0.234,-0.379
4/21/2023 16:05:03.930,0.938,0.047,-0.121
4/21/2023 16:05:03.940,1.004,-0.086,0.07
4/21/2023 16:05:03.950,1.063,-0.148,0.133
4/21/2023 16:05:03.960,1.098,-0.156,0.063
4/21/2023 16:05:03.970,1.133,-0.105,-0.023
4/21/2023 16:05:03.980,1.129,-0.043,-0.082
4/21/2023 16:05:03.990,1.059,0.016,-0.172
4/21/2023 16:05:04.000,0.957,0.07,-0.254
4/21/2023 16:05:04.010,0.891,0.102,-0.281
4/21/2023 16:05:04.020,0.871,0.172,-0.273
4/21/2023 16:05:04.030,0.895,0.188,-0.223
4/21/2023 16:05:04.040,0.953,0.176,-0.184
4/21/2023 16:05:04.050,1.008,0.219,-0.18
4/21/2023 16:05:04.060,1.09,0.27,-0.203
4/21/2023 16:05:04.070,1.148,0.215,-0.207
4/21/2023 16:05:04.080,1.168,0.152,-0.184
4/21/2023 16:05:04.090,1.184,0.113,-0.156
4/21/2023 16:05:04.100,1.191,0.098,-0.168
4/21/2023 16:05:04.110,1.191,0.047,-0.156
4/21/2023 16:05:04.120,1.242,0.031,-0.148
4/21/2023 16:05:04.130,1.332,0.027,-0.164
4/21/2023 16:05:04.140,1.398,0.023,-0.164
4/21/2023 16:05:04.150,1.441,-0.039,-0.113
4/21/2023 16:05:04.160,1.523,-0.078,-0.102
4/21/2023 16:05:04.170,1.598,-0.09,-0.191
4/21/2023 16:05:04.180,1.625,-0.199,-0.148
4/21/2023 16:05:04.190,1.695,-0.293,-0.051
4/21/2023 16:05:04.200,1.746,-0.359,-0.113
4/21/2023 16:05:04.210,1.797,-0.406,-0.277
4/21/2023 16:05:04.220,1.871,-0.5,-0.512
4/21/2023 16:05:04.230,1.984,-0.68,-0.73
4/21/2023 16:05:04.240,2.137,-0.988,-0.93
4/21/2023 16:05:04.250,2.258,-1.215,-0.953
4/21/2023 16:05:04.260,2.211,-1.184,-0.813
4/21/2023 16:05:04.270,2.199,-0.676,-0.66
4/21/2023 16:05:04.280,2.316,-0.148,-0.48
4/21/2023 16:05:04.290,2.332,-0.207,-0.785
4/21/2023 16:05:04.300,2.324,-0.371,-1.039
4/21/2023 16:05:04.310,2.188,-0.422,-1.121
4/21/2023 16:05:04.320,1.453,0.027,-1.004
4/21/2023 16:05:04.330,0.629,0.473,-1.039
4/21/2023 16:05:04.340,0.535,0.375,-0.922
4/21/2023 16:05:04.350,0.883,-0.09,-0.535
4/21/2023 16:05:04.360,1.055,-0.723,-0.438
4/21/2023 16:05:04.370,1.035,-1.082,-0.363
4/21/2023 16:05:04.380,0.855,-1.094,-0.184
4/21/2023 16:05:04.390,0.586,-0.945,0.027
4/21/2023 16:05:04.400,0.281,-0.785,0.051
4/21/2023 16:05:04.410,0.063,-0.652,-0.008
4/21/2023 16:05:04.420,0.02,-0.52,-0.047
4/21/2023 16:05:04.430,0.09,-0.453,-0.109
4/21/2023 16:05:04.440,0.191,-0.5,-0.117
4/21/2023 16:05:04.450,0.285,-0.633,-0.063
4/21/2023 16:05:04.460,0.383,-0.797,-0.02
4/21/2023 16:05:04.470,0.527,-0.863,-0.047
4/21/2023 16:05:04.480,0.719,-0.789,-0.121
4/21/2023 16:05:04.490,0.918,-0.633,-0.215
4/21/2023 16:05:04.500,1.086,-0.523,-0.301
4/21/2023 16:05:04.510,1.262,-0.504,-0.32
4/21/2023 16:05:04.520,1.441,-0.523,-0.316
4/21/2023 16:05:04.530,1.676,-0.473,-0.328
4/21/2023 16:05:04.540,1.965,-0.297,-0.332
4/21/2023 16:05:04.550,2.289,-0.094,-0.34
4/21/2023 16:05:04.560,2.609,0.156,-0.375
4/21/2023 16:05:04.570,2.961,0.578,-0.32
4/21/2023 16:05:04.580,3.289,1.23,-0.258
4/21/2023 16:05:04.590,3.512,1.902,-0.277
4/21/2023 16:05:04.600,3.477,2.512,-0.375
4/21/2023 16:05:04.610,3.219,3.211,-0.414
4/21/2023 16:05:04.620,2.805,3.914,-0.301
4/21/2023 16:05:04.630,2.332,4.445,-0.152
4/21/2023 16:05:04.640,1.934,4.773,-0.059
4/21/2023 16:05:04.650,1.707,4.832,-0.012
4/21/2023 16:05:04.660,1.699,4.738,0.066
4/21/2023 16:05:04.670,1.895,3.887,-0.309
4/21/2023 16:05:04.680,1.77,1.199,-1.035
4/21/2023 16:05:04.690,1.598,-3.195,-0.902
4/21/2023 16:05:04.700,1.648,-3.859,0.289
4/21/2023 16:05:04.710,1.621,-0.738,0.848
4/21/2023 16:05:04.720,2.184,2.172,1.047
4/21/2023 16:05:04.730,2.48,1.629,0.203
4/21/2023 16:05:04.740,2.355,0.289,-0.355
4/21/2023 16:05:04.750,1.816,0.219,-0.348
4/21/2023 16:05:04.760,1.066,0.516,-0.238
4/21/2023 16:05:04.770,0.539,0.281,-0.27
4/21/2023 16:05:04.780,0.371,0.199,-0.188
4/21/2023 16:05:04.790,0.488,0.367,-0.277
4/21/2023 16:05:04.800,0.719,0.43,-0.551
4/21/2023 16:05:04.810,0.984,0.379,-0.508
4/21/2023 16:05:04.820,1.078,0.422,-0.48
4/21/2023 16:05:04.830,1.012,0.41,-0.453
4/21/2023 16:05:04.840,1.016,0.266,-0.234
4/21/2023 16:05:04.850,1.078,0.102,-0.016
4/21/2023 16:05:04.860,1.109,-0.043,0.016
4/21/2023 16:05:04.870,1.109,-0.125,-0.051
4/21/2023 16:05:04.880,1.063,-0.16,-0.168
4/21/2023 16:05:04.890,1.055,-0.121,-0.195
4/21/2023 16:05:04.900,1.074,-0.066,-0.148
4/21/2023 16:05:04.910,1.051,-0.047,-0.188
4/21/2023 16:05:04.920,0.965,0.043,-0.309
4/21/2023 16:05:04.930,0.871,0.145,-0.344
4/21/2023 16:05:04.940,0.84,0.164,-0.297
4/21/2023 16:05:04.950,0.887,0.133,-0.215
4/21/2023 16:05:04.960,0.953,0.125,-0.176
4/21/2023 16:05:04.970,1.031,0.184,-0.199
4/21/2023 16:05:04.980,1.117,0.254,-0.281
4/21/2023 16:05:04.990,1.215,0.25,-0.281
4/21/2023 16:05:05.000,1.266,0.176,-0.254
4/21/2023 16:05:05.010,1.238,0.078,-0.234
4/21/2023 16:05:05.020,1.184,0.023,-0.188
4/21/2023 16:05:05.030,1.164,0.008,-0.125
4/21/2023 16:05:05.040,1.172,0,-0.199
4/21/2023 16:05:05.050,1.203,-0.008,-0.219
4/21/2023 16:05:05.060,1.258,-0.07,-0.188
4/21/2023 16:05:05.070,1.305,-0.113,-0.184
4/21/2023 16:05:05.080,1.387,-0.117,-0.223
4/21/2023 16:05:05.090,1.508,-0.129,-0.281
4/21/2023 16:05:05.100,1.574,-0.117,-0.273
4/21/2023 16:05:05.110,1.609,-0.18,-0.18
4/21/2023 16:05:05.120,1.695,-0.234,-0.113
4/21/2023 16:05:05.130,1.773,-0.344,-0.215
4/21/2023 16:05:05.140,1.852,-0.488,-0.395
4/21/2023 16:05:05.150,1.949,-0.645,-0.555
4/21/2023 16:05:05.160,2.082,-0.945,-0.68
4/21/2023 16:05:05.170,2.18,-1.273,-0.695
4/21/2023 16:05:05.180,2.078,-1.418,-0.648
4/21/2023 16:05:05.190,1.961,-1.027,-0.344
4/21/2023 16:05:05.200,2.348,-0.246,-0.145
4/21/2023 16:05:05.210,2.59,-0.051,-0.434
4/21/2023 16:05:05.220,2.527,-0.27,-0.879
4/21/2023 16:05:05.230,2.473,-0.363,-1.281
4/21/2023 16:05:05.240,2.031,-0.109,-1.07
4/21/2023 16:05:05.250,1.059,0.512,-1.039
4/21/2023 16:05:05.260,0.418,0.746,-1.238
4/21/2023 16:05:05.270,0.652,0.5,-1.09
4/21/2023 16:05:05.280,1.051,-0.215,-0.859
4/21/2023 16:05:05.290,1.203,-0.887,-0.723
4/21/2023 16:05:05.300,1.102,-1.195,-0.5
4/21/2023 16:05:05.310,0.852,-1.164,-0.137
4/21/2023 16:05:05.320,0.512,-1.047,0.207
4/21/2023 16:05:05.330,0.184,-0.957,0.305
4/21/2023 16:05:05.340,0.039,-0.852,0.262
4/21/2023 16:05:05.350,0.086,-0.727,0.203
4/21/2023 16:05:05.360,0.191,-0.648,0.16
4/21/2023 16:05:05.370,0.297,-0.699,0.148
4/21/2023 16:05:05.380,0.375,-0.855,0.164
4/21/2023 16:05:05.390,0.477,-0.945,0.156
4/21/2023 16:05:05.400,0.625,-0.863,0.09
4/21/2023 16:05:05.410,0.785,-0.703,0.016
4/21/2023 16:05:05.420,0.93,-0.586,-0.039
4/21/2023 16:05:05.430,1.063,-0.57,-0.074
4/21/2023 16:05:05.440,1.207,-0.594,-0.078
4/21/2023 16:05:05.450,1.391,-0.586,-0.055
4/21/2023 16:05:05.460,1.617,-0.488,-0.035
4/21/2023 16:05:05.470,1.871,-0.305,-0.031
4/21/2023 16:05:05.480,2.141,-0.031,-0.043
4/21/2023 16:05:05.490,2.414,0.305,-0.051
4/21/2023 16:05:05.500,2.711,0.781,-0.027
4/21/2023 16:05:05.510,3.055,1.375,0.012
4/21/2023 16:05:05.520,3.355,1.984,-0.016
4/21/2023 16:05:05.530,3.438,2.586,-0.129
4/21/2023 16:05:05.540,3.207,3.234,-0.293
4/21/2023 16:05:05.550,2.793,3.871,-0.418
4/21/2023 16:05:05.560,2.301,4.391,-0.391
4/21/2023 16:05:05.570,1.805,4.719,-0.238
4/21/2023 16:05:05.580,1.512,4.742,-0.086
4/21/2023 16:05:05.590,1.531,4.52,-0.039
4/21/2023 16:05:05.600,1.676,3.211,-0.656
4/21/2023 16:05:05.610,1.465,0.246,-1.59
4/21/2023 16:05:05.620,1.566,-3.66,-0.918
4/21/2023 16:05:05.630,1.742,-2.957,0.41
4/21/2023 16:05:05.640,1.953,0.773,1.137
4/21/2023 16:05:05.650,2.453,2.141,0.629
4/21/2023 16:05:05.660,2.602,0.762,-0.191
4/21/2023 16:05:05.670,2.309,0.32,-0.434
4/21/2023 16:05:05.680,1.754,0.594,-0.305
4/21/2023 16:05:05.690,1.105,0.375,-0.289
4/21/2023 16:05:05.700,0.613,0.086,-0.285
4/21/2023 16:05:05.710,0.363,0.184,-0.27
4/21/2023 16:05:05.720,0.34,0.402,-0.422
4/21/2023 16:05:05.730,0.574,0.441,-0.48
4/21/2023 16:05:05.740,0.91,0.352,-0.387
4/21/2023 16:05:05.750,1.102,0.363,-0.406
4/21/2023 16:05:05.760,1.059,0.41,-0.461
4/21/2023 16:05:05.770,1,0.414,-0.367
4/21/2023 16:05:05.780,1.031,0.309,-0.113
4/21/2023 16:05:05.790,1.109,0.105,0.086
4/21/2023 16:05:05.800,1.145,-0.008,0.129
4/21/2023 16:05:05.810,1.129,-0.016,0.074
4/21/2023 16:05:05.820,1.105,0.031,0.023
4/21/2023 16:05:05.830,1.082,0.027,-0.02
4/21/2023 16:05:05.840,1.047,-0.016,-0.031
4/21/2023 16:05:05.850,1.02,-0.055,-0.082
4/21/2023 16:05:05.860,1,-0.02,-0.215
4/21/2023 16:05:05.870,0.965,0.098,-0.332
4/21/2023 16:05:05.880,0.91,0.168,-0.402
4/21/2023 16:05:05.890,0.848,0.191,-0.395
4/21/2023 16:05:05.900,0.855,0.188,-0.316
4/21/2023 16:05:05.910,0.93,0.156,-0.223
4/21/2023 16:05:05.920,1.035,0.215,-0.176
4/21/2023 16:05:05.930,1.129,0.262,-0.23
4/21/2023 16:05:05.940,1.191,0.223,-0.234
4/21/2023 16:05:05.950,1.211,0.152,-0.121
4/21/2023 16:05:05.960,1.203,0.082,0.016
4/21/2023 16:05:05.970,1.18,-0.035,0.051
4/21/2023 16:05:05.980,1.137,-0.02,-0.07
4/21/2023 16:05:05.990,1.109,0.082,-0.242
4/21/2023 16:05:06.000,1.184,0.125,-0.375
4/21/2023 16:05:06.010,1.301,0.07,-0.398
4/21/2023 16:05:06.020,1.418,0.059,-0.32
4/21/2023 16:05:06.030,1.523,0.004,-0.211
4/21/2023 16:05:06.040,1.617,-0.09,-0.109
4/21/2023 16:05:06.050,1.668,-0.148,0.016
4/21/2023 16:05:06.060,1.73,-0.176,0.055
4/21/2023 16:05:06.070,1.797,-0.246,-0.102
4/21/2023 16:05:06.080,1.855,-0.398,-0.359
4/21/2023 16:05:06.090,1.918,-0.527,-0.582
4/21/2023 16:05:06.100,2.016,-0.758,-0.738
4/21/2023 16:05:06.110,2.137,-1.039,-0.863
4/21/2023 16:05:06.120,2.156,-1.23,-0.758
4/21/2023 16:05:06.130,2.004,-1.121,-0.672
4/21/2023 16:05:06.140,2.152,-0.422,-0.426
4/21/2023 16:05:06.150,2.344,-0.199,-0.469
4/21/2023 16:05:06.160,2.262,-0.355,-0.746
4/21/2023 16:05:06.170,2.434,-0.504,-1.195
4/21/2023 16:05:06.180,2.293,-0.395,-1.055
4/21/2023 16:05:06.190,1.246,0.293,-0.961
4/21/2023 16:05:06.200,0.375,0.719,-1.078
4/21/2023 16:05:06.210,0.457,0.578,-0.918
4/21/2023 16:05:06.220,0.824,-0.117,-0.633
4/21/2023 16:05:06.230,1.063,-0.809,-0.5
4/21/2023 16:05:06.240,1.039,-1.008,-0.301
4/21/2023 16:05:06.250,0.793,-0.961,-0.086
4/21/2023 16:05:06.260,0.473,-0.844,0.047
4/21/2023 16:05:06.270,0.176,-0.719,0.008
4/21/2023 16:05:06.280,0.016,-0.586,-0.039
4/21/2023 16:05:06.290,0.031,-0.473,-0.078
4/21/2023 16:05:06.300,0.121,-0.418,-0.164
4/21/2023 16:05:06.310,0.203,-0.457,-0.156
4/21/2023 16:05:06.320,0.27,-0.598,-0.098
4/21/2023 16:05:06.330,0.363,-0.781,-0.047
4/21/2023 16:05:06.340,0.523,-0.859,-0.063
4/21/2023 16:05:06.350,0.73,-0.754,-0.133
4/21/2023 16:05:06.360,0.918,-0.598,-0.219
4/21/2023 16:05:06.370,1.074,-0.5,-0.297
4/21/2023 16:05:06.380,1.227,-0.508,-0.324
4/21/2023 16:05:06.390,1.43,-0.543,-0.336
4/21/2023 16:05:06.400,1.711,-0.457,-0.348
4/21/2023 16:05:06.410,2.047,-0.262,-0.336
4/21/2023 16:05:06.420,2.367,-0.039,-0.348
4/21/2023 16:05:06.430,2.645,0.242,-0.367
4/21/2023 16:05:06.440,2.945,0.648,-0.301
4/21/2023 16:05:06.450,3.301,1.266,-0.191
4/21/2023 16:05:06.460,3.563,1.953,-0.168
4/21/2023 16:05:06.470,3.504,2.605,-0.219
4/21/2023 16:05:06.480,3.223,3.336,-0.199
4/21/2023 16:05:06.490,2.84,3.996,-0.043
4/21/2023 16:05:06.500,2.379,4.48,0.152
4/21/2023 16:05:06.510,1.977,4.711,0.316
4/21/2023 16:05:06.520,1.746,4.707,0.383
4/21/2023 16:05:06.530,1.887,4.441,0.211
4/21/2023 16:05:06.540,1.965,3.145,-0.434
4/21/2023 16:05:06.550,1.57,0.188,-1.105
4/21/2023 16:05:06.560,1.641,-3.473,-0.434
4/21/2023 16:05:06.570,1.781,-2.641,0.707
4/21/2023 16:05:06.580,2.055,0.91,1.188
4/21/2023 16:05:06.590,2.484,2.277,0.508
4/21/2023 16:05:06.600,2.492,1.016,-0.414
4/21/2023 16:05:06.610,2.145,0.43,-0.59
4/21/2023 16:05:06.620,1.457,0.629,-0.297
4/21/2023 16:05:06.630,0.797,0.496,0.008
4/21/2023 16:05:06.640,0.406,0.23,0.012
4/21/2023 16:05:06.650,0.328,0.191,-0.277
4/21/2023 16:05:06.660,0.504,0.316,-0.508
4/21/2023 16:05:06.670,0.824,0.391,-0.469
4/21/2023 16:05:06.680,1.035,0.438,-0.461
4/21/2023 16:05:06.690,1.066,0.426,-0.457
4/21/2023 16:05:06.700,1.055,0.273,-0.344
4/21/2023 16:05:06.710,1.098,0.152,-0.09
4/21/2023 16:05:06.720,1.098,0.047,0.027
4/21/2023 16:05:06.730,1.066,-0.039,-0.012
4/21/2023 16:05:06.740,1.082,-0.078,-0.035
4/21/2023 16:05:06.750,1.137,-0.051,-0.066
4/21/2023 16:05:06.760,1.168,-0.055,-0.137
4/21/2023 16:05:06.770,1.129,-0.031,-0.242
4/21/2023 16:05:06.780,1.004,0.012,-0.313
4/21/2023 16:05:06.790,0.883,0.066,-0.336
4/21/2023 16:05:06.800,0.824,0.109,-0.332
4/21/2023 16:05:06.810,0.863,0.113,-0.266
4/21/2023 16:05:06.820,0.973,0.09,-0.211
4/21/2023 16:05:06.830,1.074,0.129,-0.27
4/21/2023 16:05:06.840,1.117,0.168,-0.336
4/21/2023 16:05:06.850,1.133,0.191,-0.34
4/21/2023 16:05:06.860,1.121,0.141,-0.262
4/21/2023 16:05:06.870,1.063,0.043,-0.191
4/21/2023 16:05:06.880,1.004,-0.031,-0.094
4/21/2023 16:05:06.890,0.969,-0.039,-0.086
4/21/2023 16:05:06.900,0.969,0.039,-0.172
4/21/2023 16:05:06.910,1.082,0.102,-0.266
4/21/2023 16:05:06.920,1.215,0.117,-0.344
4/21/2023 16:05:06.930,1.289,0.023,-0.297
4/21/2023 16:05:06.940,1.363,-0.102,-0.207
4/21/2023 16:05:06.950,1.457,-0.074,-0.16
4/21/2023 16:05:06.960,1.551,-0.055,-0.164
4/21/2023 16:05:06.970,1.605,-0.137,-0.145
4/21/2023 16:05:06.980,1.656,-0.215,-0.047
4/21/2023 16:05:06.990,1.723,-0.254,-0.105
4/21/2023 16:05:07.000,1.766,-0.379,-0.117
4/21/2023 16:05:07.010,1.867,-0.516,-0.184
4/21/2023 16:05:07.020,1.91,-0.664,-0.395
4/21/2023 16:05:07.030,1.945,-0.867,-0.551
4/21/2023 16:05:07.040,1.988,-1.273,-0.668
4/21/2023 16:05:07.050,1.898,-1.512,-0.793
4/21/2023 16:05:07.060,1.848,-1.059,-0.57
4/21/2023 16:05:07.070,2.277,-0.238,-0.25
4/21/2023 16:05:07.080,2.535,-0.07,-0.406
4/21/2023 16:05:07.090,2.48,-0.266,-0.832
4/21/2023 16:05:07.100,2.523,-0.332,-1.289
4/21/2023 16:05:07.110,2.113,-0.289,-1.078
4/21/2023 16:05:07.120,1.168,0.336,-0.965
4/21/2023 16:05:07.130,0.434,0.801,-1.137
4/21/2023 16:05:07.140,0.539,0.605,-0.992
4/21/2023 16:05:07.150,0.941,-0.082,-0.648
4/21/2023 16:05:07.160,1.152,-0.77,-0.547
4/21/2023 16:05:07.170,1.137,-1.008,-0.445
4/21/2023 16:05:07.180,0.934,-0.969,-0.32
4/21/2023 16:05:07.190,0.633,-0.852,-0.121
4/21/2023 16:05:07.200,0.328,-0.738,0.023
4/21/2023 16:05:07.210,0.109,-0.625,0.023
4/21/2023 16:05:07.220,0.039,-0.539,-0.074
4/21/2023 16:05:07.230,0.074,-0.504,-0.176
4/21/2023 16:05:07.240,0.141,-0.527,-0.195
4/21/2023 16:05:07.250,0.223,-0.629,-0.145
4/21/2023 16:05:07.260,0.34,-0.754,-0.094
4/21/2023 16:05:07.270,0.5,-0.816,-0.078
4/21/2023 16:05:07.280,0.695,-0.77,-0.094
4/21/2023 16:05:07.290,0.891,-0.66,-0.129
4/21/2023 16:05:07.300,1.063,-0.555,-0.141
4/21/2023 16:05:07.310,1.227,-0.516,-0.098
4/21/2023 16:05:07.320,1.387,-0.527,-0.059
4/21/2023 16:05:07.330,1.57,-0.512,-0.074
4/21/2023 16:05:07.340,1.816,-0.375,-0.102
4/21/2023 16:05:07.350,2.113,-0.141,-0.184
4/21/2023 16:05:07.360,2.422,0.188,-0.332
4/21/2023 16:05:07.370,2.805,0.668,-0.43
4/21/2023 16:05:07.380,3.328,1.305,-0.387
4/21/2023 16:05:07.390,3.746,1.957,-0.379
4/21/2023 16:05:07.400,3.711,2.59,-0.379
4/21/2023 16:05:07.410,3.359,3.309,-0.297
4/21/2023 16:05:07.420,2.906,4.004,-0.086
4/21/2023 16:05:07.430,2.391,4.457,0.148
4/21/2023 16:05:07.440,1.91,4.66,0.313
4/21/2023 16:05:07.450,1.684,4.625,0.383
4/21/2023 16:05:07.460,1.824,4.387,0.371
4/21/2023 16:05:07.470,2.105,3.418,-0.211
4/21/2023 16:05:07.480,1.777,0.684,-1.344
4/21/2023 16:05:07.490,1.488,-3.297,-1.18
4/21/2023 16:05:07.500,1.496,-3.586,0.148
4/21/2023 16:05:07.510,1.574,-0.375,0.875
4/21/2023 16:05:07.520,2.211,2.445,0.887
4/21/2023 16:05:07.530,2.551,1.625,0
4/21/2023 16:05:07.540,2.469,0.313,-0.293
4/21/2023 16:05:07.550,1.801,0.125,-0.148
4/21/2023 16:05:07.560,0.871,0.281,-0.152
4/21/2023 16:05:07.570,0.305,0.281,-0.254
4/21/2023 16:05:07.580,0.27,0.281,-0.27
4/21/2023 16:05:07.590,0.531,0.379,-0.25
4/21/2023 16:05:07.600,0.84,0.422,-0.34
4/21/2023 16:05:07.610,1.023,0.363,-0.512
4/21/2023 16:05:07.620,1.078,0.359,-0.531
4/21/2023 16:05:07.630,1.047,0.379,-0.484
4/21/2023 16:05:07.640,1,0.34,-0.367
4/21/2023 16:05:07.650,1.031,0.219,-0.098
4/21/2023 16:05:07.660,1.094,0.055,0.109
4/21/2023 16:05:07.670,1.129,-0.078,0.078
4/21/2023 16:05:07.680,1.125,-0.09,-0.004
4/21/2023 16:05:07.690,1.109,-0.055,-0.059
4/21/2023 16:05:07.700,1.094,-0.023,-0.043
4/21/2023 16:05:07.710,1.059,-0.027,-0.078
4/21/2023 16:05:07.720,0.992,0.012,-0.188
4/21/2023 16:05:07.730,0.906,0.113,-0.277
4/21/2023 16:05:07.740,0.852,0.168,-0.313
4/21/2023 16:05:07.750,0.871,0.184,-0.277
4/21/2023 16:05:07.760,0.93,0.164,-0.211
4/21/2023 16:05:07.770,1,0.195,-0.188
4/21/2023 16:05:07.780,1.086,0.246,-0.148
4/21/2023 16:05:07.790,1.16,0.23,-0.164
4/21/2023 16:05:07.800,1.203,0.18,-0.133
4/21/2023 16:05:07.810,1.199,0.09,-0.117
4/21/2023 16:05:07.820,1.16,0.027,-0.137
4/21/2023 16:05:07.830,1.117,0.047,-0.18
4/21/2023 16:05:07.840,1.07,0.043,-0.254
4/21/2023 16:05:07.850,1.113,0.051,-0.27
4/21/2023 16:05:07.860,1.203,0.066,-0.293
4/21/2023 16:05:07.870,1.234,0.02,-0.254
4/21/2023 16:05:07.880,1.273,-0.043,-0.211
4/21/2023 16:05:07.890,1.359,-0.059,-0.168
4/21/2023 16:05:07.900,1.469,-0.07,-0.191
4/21/2023 16:05:07.910,1.547,-0.109,-0.238
4/21/2023 16:05:07.920,1.621,-0.152,-0.227
4/21/2023 16:05:07.930,1.699,-0.184,-0.199
4/21/2023 16:05:07.940,1.781,-0.281,-0.199
4/21/2023 16:05:07.950,1.867,-0.438,-0.359
4/21/2023 16:05:07.960,1.941,-0.555,-0.598
4/21/2023 16:05:07.970,2.004,-0.723,-0.75
4/21/2023 16:05:07.980,2.094,-1.023,-0.82
4/21/2023 16:05:07.990,2.109,-1.227,-0.738
4/21/2023 16:05:08.000,1.961,-1.125,-0.629
4/21/2023 16:05:08.010,2.07,-0.48,-0.395
4/21/2023 16:05:08.020,2.32,-0.035,-0.43
4/21/2023 16:05:08.030,2.246,-0.262,-0.785
4/21/2023 16:05:08.040,2.281,-0.496,-1.109
4/21/2023 16:05:08.050,2.313,-0.527,-1.109
4/21/2023 16:05:08.060,1.469,0.063,-0.973
4/21/2023 16:05:08.070,0.492,0.578,-1.078
4/21/2023 16:05:08.080,0.27,0.484,-1.043
4/21/2023 16:05:08.090,0.699,-0.059,-0.77
4/21/2023 16:05:08.100,1.004,-0.797,-0.68
4/21/2023 16:05:08.110,1.043,-1.184,-0.496
4/21/2023 16:05:08.120,0.875,-1.18,-0.191
4/21/2023 16:05:08.130,0.598,-0.996,0.055
4/21/2023 16:05:08.140,0.266,-0.805,0.098
4/21/2023 16:05:08.150,0.051,-0.66,-0.02
4/21/2023 16:05:08.160,0.066,-0.543,-0.121
4/21/2023 16:05:08.170,0.195,-0.488,-0.156
4/21/2023 16:05:08.180,0.316,-0.516,-0.133
4/21/2023 16:05:08.190,0.438,-0.684,-0.078
4/21/2023 16:05:08.200,0.582,-0.891,-0.043
4/21/2023 16:05:08.210,0.793,-0.949,-0.074
4/21/2023 16:05:08.220,1.039,-0.805,-0.133
4/21/2023 16:05:08.230,1.238,-0.605,-0.188
4/21/2023 16:05:08.240,1.383,-0.477,-0.23
4/21/2023 16:05:08.250,1.523,-0.449,-0.277
4/21/2023 16:05:08.260,1.715,-0.465,-0.309
4/21/2023 16:05:08.270,1.98,-0.352,-0.313
4/21/2023 16:05:08.280,2.262,-0.141,-0.313
4/21/2023 16:05:08.290,2.512,0.137,-0.309
4/21/2023 16:05:08.300,2.766,0.535,-0.258
4/21/2023 16:05:08.310,3.059,1.074,-0.152
4/21/2023 16:05:08.320,3.266,1.664,-0.031
4/21/2023 16:05:08.330,3.27,2.203,0.082
4/21/2023 16:05:08.340,3.113,2.766,0.188
4/21/2023 16:05:08.350,2.855,3.391,0.27
4/21/2023 16:05:08.360,2.52,3.965,0.297
4/21/2023 16:05:08.370,2.133,4.414,0.301
4/21/2023 16:05:08.380,1.824,4.66,0.297
4/21/2023 16:05:08.390,1.902,4.586,0.113
4/21/2023 16:05:08.400,1.867,4.039,-0.688
4/21/2023 16:05:08.410,1.57,2.148,-1.531
4/21/2023 16:05:08.420,1.695,-2.094,-1.199
4/21/2023 16:05:08.430,2.172,-2.73,0.414
4/21/2023 16:05:08.440,2.191,0.613,0.883
4/21/2023 16:05:08.450,2.422,2.309,0.762
4/21/2023 16:05:08.460,2.383,1.168,0.066
4/21/2023 16:05:08.470,1.973,0.359,-0.344
4/21/2023 16:05:08.480,1.402,0.602,-0.258
4/21/2023 16:05:08.490,0.711,0.617,-0.094
4/21/2023 16:05:08.500,0.262,0.113,0.121
4/21/2023 16:05:08.510,0.277,0.004,0.191
4/21/2023 16:05:08.520,0.52,0.203,-0.184
4/21/2023 16:05:08.530,0.832,0.34,-0.371
4/21/2023 16:05:08.540,1.102,0.418,-0.391
4/21/2023 16:05:08.550,1.207,0.422,-0.48
4/21/2023 16:05:08.560,1.172,0.383,-0.461
4/21/2023 16:05:08.570,1.137,0.332,-0.328
4/21/2023 16:05:08.580,1.148,0.211,-0.172
4/21/2023 16:05:08.590,1.148,0.098,-0.082
4/21/2023 16:05:08.600,1.094,-0.012,-0.074
4/21/2023 16:05:08.610,1.012,-0.102,-0.082
4/21/2023 16:05:08.620,0.973,-0.121,-0.102
4/21/2023 16:05:08.630,0.965,-0.094,-0.156
4/21/2023 16:05:08.640,0.969,-0.023,-0.227
4/21/2023 16:05:08.650,0.945,0.07,-0.27
4/21/2023 16:05:08.660,0.902,0.121,-0.285
4/21/2023 16:05:08.670,0.887,0.137,-0.305
4/21/2023 16:05:08.680,0.918,0.152,-0.293
4/21/2023 16:05:08.690,1.004,0.145,-0.238
4/21/2023 16:05:08.700,1.117,0.172,-0.227
4/21/2023 16:05:08.710,1.195,0.215,-0.223
4/21/2023 16:05:08.720,1.23,0.211,-0.219
4/21/2023 16:05:08.730,1.211,0.141,-0.191
4/21/2023 16:05:08.740,1.168,0.078,-0.125
4/21/2023 16:05:08.750,1.129,0.02,-0.105
4/21/2023 16:05:08.760,1.094,-0.012,-0.172
4/21/2023 16:05:08.770,1.141,0.004,-0.199
4/21/2023 16:05:08.780,1.266,0.02,-0.242
4/21/2023 16:05:08.790,1.34,0.016,-0.223
4/21/2023 16:05:08.800,1.391,-0.055,-0.191
4/21/2023 16:05:08.810,1.453,-0.125,-0.164
4/21/2023 16:05:08.820,1.539,-0.133,-0.164
4/21/2023 16:05:08.830,1.602,-0.16,-0.164
4/21/2023 16:05:08.840,1.641,-0.184,-0.172
4/21/2023 16:05:08.850,1.688,-0.234,-0.199
4/21/2023 16:05:08.860,1.762,-0.328,-0.301
4/21/2023 16:05:08.870,1.867,-0.441,-0.477
4/21/2023 16:05:08.880,2.004,-0.609,-0.633
4/21/2023 16:05:08.890,2.168,-0.922,-0.734
4/21/2023 16:05:08.900,2.32,-1.152,-0.613
4/21/2023 16:05:08.910,2.27,-1.195,-0.477
4/21/2023 16:05:08.920,2.121,-0.668,-0.398
4/21/2023 16:05:08.930,2.328,-0.281,-0.414
4/21/2023 16:05:08.940,2.297,-0.371,-0.785
4/21/2023 16:05:08.950,2.355,-0.316,-0.938
4/21/2023 16:05:08.960,2.461,-0.332,-1.109
4/21/2023 16:05:08.970,1.676,0.004,-0.891
4/21/2023 16:05:08.980,0.574,0.504,-1.008
4/21/2023 16:05:08.990,0.211,0.617,-1.121
4/21/2023 16:05:09.000,0.535,0.234,-1.008
4/21/2023 16:05:09.010,0.922,-0.5,-0.863
4/21/2023 16:05:09.020,1.012,-0.945,-0.605
4/21/2023 16:05:09.030,0.816,-0.992,-0.203
4/21/2023 16:05:09.040,0.516,-0.848,0.074
4/21/2023 16:05:09.050,0.203,-0.738,0.082
4/21/2023 16:05:09.060,0.051,-0.695,0.02
4/21/2023 16:05:09.070,0.109,-0.598,0.012
4/21/2023 16:05:09.080,0.219,-0.484,-0.035
4/21/2023 16:05:09.090,0.27,-0.465,-0.066
4/21/2023 16:05:09.100,0.289,-0.59,-0.055
4/21/2023 16:05:09.110,0.34,-0.793,-0.023
4/21/2023 16:05:09.120,0.477,-0.91,-0.031
4/21/2023 16:05:09.130,0.691,-0.832,-0.078
4/21/2023 16:05:09.140,0.895,-0.664,-0.152
4/21/2023 16:05:09.150,1.066,-0.547,-0.25
4/21/2023 16:05:09.160,1.238,-0.523,-0.289
4/21/2023 16:05:09.170,1.422,-0.563,-0.316
4/21/2023 16:05:09.180,1.656,-0.543,-0.348
4/21/2023 16:05:09.190,1.984,-0.402,-0.316
4/21/2023 16:05:09.200,2.313,-0.184,-0.293
4/21/2023 16:05:09.210,2.582,0.066,-0.32
4/21/2023 16:05:09.220,2.855,0.457,-0.254
4/21/2023 16:05:09.230,3.191,1.031,-0.109
4/21/2023 16:05:09.240,3.473,1.645,-0.016
4/21/2023 16:05:09.250,3.504,2.207,-0.051
4/21/2023 16:05:09.260,3.293,2.945,-0.051
4/21/2023 16:05:09.270,2.898,3.758,0.039
4/21/2023 16:05:09.280,2.434,4.387,0.18
4/21/2023 16:05:09.290,2.016,4.746,0.363
4/21/2023 16:05:09.300,1.793,4.828,0.391
4/21/2023 16:05:09.310,1.988,4.469,0.129
4/21/2023 16:05:09.320,1.809,3.723,-0.645
4/21/2023 16:05:09.330,1.543,0.512,-1.438
4/21/2023 16:05:09.340,2.035,-3.313,-0.367
4/21/2023 16:05:09.350,2.266,-1.563,0.719
4/21/2023 16:05:09.360,2.398,1.902,1.18
4/21/2023 16:05:09.370,2.527,1.969,0.406
4/21/2023 16:05:09.380,2.23,0.594,-0.5
4/21/2023 16:05:09.390,1.77,0.387,-0.598
4/21/2023 16:05:09.400,1.125,0.707,-0.156
4/21/2023 16:05:09.410,0.523,0.465,0.09
4/21/2023 16:05:09.420,0.309,0.129,0.148
4/21/2023 16:05:09.430,0.398,0.086,-0.199
4/21/2023 16:05:09.440,0.633,0.238,-0.402
4/21/2023 16:05:09.450,0.883,0.418,-0.445
4/21/2023 16:05:09.460,1.027,0.434,-0.449
4/21/2023 16:05:09.470,1.078,0.25,-0.414
4/21/2023 16:05:09.480,1.121,0.227,-0.207
4/21/2023 16:05:09.490,1.125,0.215,-0.078
4/21/2023 16:05:09.500,1.094,0.117,-0.031
4/21/2023 16:05:09.510,1.102,0.031,0.012
4/21/2023 16:05:09.520,1.109,0.016,-0.063
4/21/2023 16:05:09.530,1.098,0.016,-0.18
4/21/2023 16:05:09.540,1.059,0.016,-0.227
4/21/2023 16:05:09.550,0.992,0.031,-0.223
4/21/2023 16:05:09.560,0.949,0.082,-0.215
4/21/2023 16:05:09.570,0.898,0.117,-0.242
4/21/2023 16:05:09.580,0.871,0.102,-0.242
4/21/2023 16:05:09.590,0.895,0.113,-0.23
4/21/2023 16:05:09.600,0.934,0.156,-0.281
4/21/2023 16:05:09.610,0.977,0.219,-0.316
4/21/2023 16:05:09.620,1.047,0.246,-0.309
4/21/2023 16:05:09.630,1.117,0.234,-0.27
4/21/2023 16:05:09.640,1.164,0.184,-0.223
4/21/2023 16:05:09.650,1.137,0.105,-0.164
4/21/2023 16:05:09.660,1.07,0.082,-0.102
4/21/2023 16:05:09.670,1.043,0.047,-0.012
4/21/2023 16:05:09.680,1.07,0.027,0.004
4/21/2023 16:05:09.690,1.094,0.059,-0.074
4/21/2023 16:05:09.700,1.105,0.094,-0.152
4/21/2023 16:05:09.710,1.191,0.152,-0.156
4/21/2023 16:05:09.720,1.289,0.152,-0.246
4/21/2023 16:05:09.730,1.34,0.086,-0.262
4/21/2023 16:05:09.740,1.441,0,-0.207
4/21/2023 16:05:09.750,1.578,-0.023,-0.246
4/21/2023 16:05:09.760,1.594,-0.066,-0.23
4/21/2023 16:05:09.770,1.633,-0.141,-0.113
4/21/2023 16:05:09.780,1.691,-0.207,-0.066
4/21/2023 16:05:09.790,1.738,-0.305,-0.191
4/21/2023 16:05:09.800,1.797,-0.41,-0.363
4/21/2023 16:05:09.810,1.879,-0.566,-0.496
4/21/2023 16:05:09.820,1.996,-0.793,-0.648
4/21/2023 16:05:09.830,2.063,-1.039,-0.711
4/21/2023 16:05:09.840,1.949,-1.086,-0.641
4/21/2023 16:05:09.850,1.871,-0.695,-0.477
4/21/2023 16:05:09.860,2.152,-0.07,-0.363
4/21/2023 16:05:09.870,2.297,-0.066,-0.668
4/21/2023 16:05:09.880,2.207,-0.207,-0.891
4/21/2023 16:05:09.890,2.332,-0.191,-1.273
4/21/2023 16:05:09.900,2.137,-0.051,-0.977
4/21/2023 16:05:09.910,1.188,0.414,-0.863
4/21/2023 16:05:09.920,0.43,0.703,-1.098
4/21/2023 16:05:09.930,0.453,0.594,-1.066
4/21/2023 16:05:09.940,0.816,0.082,-0.715
4/21/2023 16:05:09.950,1.008,-0.582,-0.535
4/21/2023 16:05:09.960,0.957,-0.875,-0.348
4/21/2023 16:05:09.970,0.73,-0.867,-0.113
4/21/2023 16:05:09.980,0.465,-0.762,0.063
4/21/2023 16:05:09.990,0.238,-0.645,0.082
4/21/2023 16:05:10.000,0.094,-0.559,0.008
4/21/2023 16:05:10.010,0.102,-0.5,-0.031
4/21/2023 16:05:10.020,0.152,-0.449,-0.094
4/21/2023 16:05:10.030,0.172,-0.445,-0.152
4/21/2023 16:05:10.040,0.18,-0.5,-0.145
4/21/2023 16:05:10.050,0.234,-0.586,-0.125
4/21/2023 16:05:10.060,0.355,-0.645,-0.113
4/21/2023 16:05:10.070,0.527,-0.629,-0.125
4/21/2023 16:05:10.080,0.703,-0.563,-0.16
4/21/2023 16:05:10.090,0.859,-0.543,-0.211
4/21/2023 16:05:10.100,1.027,-0.52,-0.266
4/21/2023 16:05:10.110,1.188,-0.504,-0.293
4/21/2023 16:05:10.120,1.355,-0.508,-0.313
4/21/2023 16:05:10.130,1.582,-0.457,-0.328
4/21/2023 16:05:10.140,1.859,-0.316,-0.316
4/21/2023 16:05:10.150,2.172,-0.133,-0.301
4/21/2023 16:05:10.160,2.484,0.129,-0.305
4/21/2023 16:05:10.170,2.832,0.574,-0.242
4/21/2023 16:05:10.180,3.246,1.188,-0.063
4/21/2023 16:05:10.190,3.484,1.746,0.035
4/21/2023 16:05:10.200,3.441,2.207,-0.027
4/21/2023 16:05:10.210,3.242,2.859,-0.035
4/21/2023 16:05:10.220,2.887,3.609,0.145
4/21/2023 16:05:10.230,2.426,4.16,0.387
4/21/2023 16:05:10.240,2.016,4.383,0.566
4/21/2023 16:05:10.250,1.82,4.383,0.652
4/21/2023 16:05:10.260,1.848,4.266,0.574
4/21/2023 16:05:10.270,1.938,3.41,-0.16
4/21/2023 16:05:10.280,1.668,1.176,-1.199
4/21/2023 16:05:10.290,1.48,-2.52,-1.082
4/21/2023 16:05:10.300,1.613,-2.918,0.195
4/21/2023 16:05:10.310,1.656,-0.07,0.832
4/21/2023 16:05:10.320,2.203,1.918,0.902
4/21/2023 16:05:10.330,2.387,1.113,0.082
4/21/2023 16:05:10.340,2.285,0.219,-0.379
4/21/2023 16:05:10.350,1.887,0.203,-0.324
4/21/2023 16:05:10.360,1.148,0.313,-0.293
4/21/2023 16:05:10.370,0.555,0.297,-0.246
4/21/2023 16:05:10.380,0.344,0.262,-0.168
4/21/2023 16:05:10.390,0.43,0.23,-0.238
4/21/2023 16:05:10.400,0.629,0.266,-0.422
4/21/2023 16:05:10.410,0.875,0.332,-0.488
4/21/2023 16:05:10.420,1.047,0.348,-0.516
4/21/2023 16:05:10.430,1.055,0.316,-0.547
4/21/2023 16:05:10.440,1.012,0.223,-0.391
4/21/2023 16:05:10.450,1.027,0.059,-0.113
4/21/2023 16:05:10.460,1.039,-0.059,-0.012
4/21/2023 16:05:10.470,1.039,-0.098,-0.051
4/21/2023 16:05:10.480,1.039,-0.117,-0.117
4/21/2023 16:05:10.490,1.074,-0.098,-0.145
4/21/2023 16:05:10.500,1.098,-0.047,-0.168
4/21/2023 16:05:10.510,1.07,0,-0.199
4/21/2023 16:05:10.520,0.969,0.055,-0.223
4/21/2023 16:05:10.530,0.887,0.109,-0.238
4/21/2023 16:05:10.540,0.887,0.145,-0.234
4/21/2023 16:05:10.550,0.938,0.117,-0.23
4/21/2023 16:05:10.560,1,0.121,-0.273
4/21/2023 16:05:10.570,1.035,0.195,-0.285
4/21/2023 16:05:10.580,1.09,0.258,-0.211
4/21/2023 16:05:10.590,1.121,0.211,-0.176
4/21/2023 16:05:10.600,1.086,0.086,-0.148
4/21/2023 16:05:10.610,1.047,0.039,-0.109
4/21/2023 16:05:10.620,1.051,0.066,-0.129
4/21/2023 16:05:10.630,1.078,0.117,-0.289
4/21/2023 16:05:10.640,1.129,0.102,-0.328
4/21/2023 16:05:10.650,1.234,0.105,-0.344
4/21/2023 16:05:10.660,1.344,0.117,-0.438
4/21/2023 16:05:10.670,1.363,0.012,-0.418
4/21/2023 16:05:10.680,1.402,-0.074,-0.332
4/21/2023 16:05:10.690,1.453,-0.023,-0.273
4/21/2023 16:05:10.700,1.496,-0.094,-0.266
4/21/2023 16:05:10.710,1.496,-0.172,-0.238
4/21/2023 16:05:10.720,1.539,-0.207,-0.195
4/21/2023 16:05:10.730,1.605,-0.277,-0.133
4/21/2023 16:05:10.740,1.676,-0.363,-0.117
4/21/2023 16:05:10.750,1.734,-0.473,-0.223
4/21/2023 16:05:10.760,1.793,-0.605,-0.355
4/21/2023 16:05:10.770,1.871,-0.816,-0.504
4/21/2023 16:05:10.780,1.938,-1.102,-0.637
4/21/2023 16:05:10.790,1.867,-1.355,-0.719
4/21/2023 16:05:10.800,1.68,-1.207,-0.574
4/21/2023 16:05:10.810,1.965,-0.566,-0.172
4/21/2023 16:05:10.820,2.363,-0.07,-0.148
4/21/2023 16:05:10.830,2.34,-0.156,-0.543
4/21/2023 16:05:10.840,2.191,-0.262,-1.059
4/21/2023 16:05:10.850,2.145,-0.281,-1.094
4/21/2023 16:05:10.860,1.563,0.195,-0.871
4/21/2023 16:05:10.870,0.785,0.746,-0.961
4/21/2023 16:05:10.880,0.43,0.82,-1.09
4/21/2023 16:05:10.890,0.832,0.41,-0.934
4/21/2023 16:05:10.900,1.184,-0.355,-0.785
4/21/2023 16:05:10.910,1.285,-0.867,-0.648
4/21/2023 16:05:10.920,1.129,-0.961,-0.469
4/21/2023 16:05:10.930,0.828,-0.82,-0.188
4/21/2023 16:05:10.940,0.438,-0.723,0.008
4/21/2023 16:05:10.950,0.129,-0.711,0.035
4/21/2023 16:05:10.960,0.008,-0.684,0
4/21/2023 16:05:10.970,0.016,-0.633,-0.055
4/21/2023 16:05:10.980,0.063,-0.559,-0.07
4/21/2023 16:05:10.990,0.121,-0.566,-0.063
4/21/2023 16:05:11.000,0.199,-0.688,-0.063
4/21/2023 16:05:11.010,0.344,-0.785,-0.055
4/21/2023 16:05:11.020,0.523,-0.75,-0.102
4/21/2023 16:05:11.030,0.699,-0.645,-0.156
4/21/2023 16:05:11.040,0.844,-0.563,-0.199
4/21/2023 16:05:11.050,0.984,-0.531,-0.223
4/21/2023 16:05:11.060,1.145,-0.543,-0.203
4/21/2023 16:05:11.070,1.332,-0.594,-0.184
4/21/2023 16:05:11.080,1.563,-0.566,-0.18
4/21/2023 16:05:11.090,1.848,-0.406,-0.164
4/21/2023 16:05:11.100,2.168,-0.184,-0.148
4/21/2023 16:05:11.110,2.484,0.102,-0.195
4/21/2023 16:05:11.120,2.859,0.539,-0.199
4/21/2023 16:05:11.130,3.34,1.133,-0.145
4/21/2023 16:05:11.140,3.719,1.77,-0.164
4/21/2023 16:05:11.150,3.699,2.422,-0.273
4/21/2023 16:05:11.160,3.344,3.203,-0.344
4/21/2023 16:05:11.170,2.863,3.992,-0.293
4/21/2023 16:05:11.180,2.359,4.531,-0.109
4/21/2023 16:05:11.190,1.957,4.73,0.156
4/21/2023 16:05:11.200,1.719,4.676,0.309
4/21/2023 16:05:11.210,1.863,4.422,0.188
4/21/2023 16:05:11.220,1.898,3.266,-0.586
4/21/2023 16:05:11.230,1.582,0.258,-1.27
4/21/2023 16:05:11.240,1.777,-3.516,-0.52
4/21/2023 16:05:11.250,1.867,-2.375,0.387
4/21/2023 16:05:11.260,2.109,1.172,1.09
4/21/2023 16:05:11.270,2.539,2.254,0.809
4/21/2023 16:05:11.280,2.398,0.77,-0.156
4/21/2023 16:05:11.290,2.074,0.094,-0.395
4/21/2023 16:05:11.300,1.441,0.48,-0.23
4/21/2023 16:05:11.310,0.734,0.551,-0.074
4/21/2023 16:05:11.320,0.375,0.195,-0.02
4/21/2023 16:05:11.330,0.359,0.109,-0.141
4/21/2023 16:05:11.340,0.535,0.242,-0.34
4/21/2023 16:05:11.350,0.816,0.313,-0.41
4/21/2023 16:05:11.360,1.039,0.352,-0.445
4/21/2023 16:05:11.370,1.117,0.355,-0.492
4/21/2023 16:05:11.380,1.078,0.277,-0.527
4/21/2023 16:05:11.390,1.051,0.168,-0.352
4/21/2023 16:05:11.400,1.023,0.031,-0.113
4/21/2023 16:05:11.410,1.004,-0.105,-0.039
4/21/2023 16:05:11.420,1,-0.168,-0.094
4/21/2023 16:05:11.430,0.992,-0.195,-0.172
4/21/2023 16:05:11.440,1.004,-0.195,-0.195
4/21/2023 16:05:11.450,1.031,-0.117,-0.168
4/21/2023 16:05:11.460,1.004,-0.012,-0.176
4/21/2023 16:05:11.470,0.934,0.035,-0.215
4/21/2023 16:05:11.480,0.863,0.102,-0.238
4/21/2023 16:05:11.490,0.871,0.133,-0.16
4/21/2023 16:05:11.500,0.957,0.117,-0.09
4/21/2023 16:05:11.510,1.043,0.121,-0.066
4/21/2023 16:05:11.520,1.078,0.16,-0.082
4/21/2023 16:05:11.530,1.102,0.234,-0.113
4/21/2023 16:05:11.540,1.094,0.203,-0.191
4/21/2023 16:05:11.550,1.063,0.145,-0.223
4/21/2023 16:05:11.560,1.059,0.133,-0.152
4/21/2023 16:05:11.570,1.098,0.09,-0.117
4/21/2023 16:05:11.580,1.094,0.078,-0.133
4/21/2023 16:05:11.590,1.125,0.09,-0.133
4/21/2023 16:05:11.600,1.227,0.086,-0.098
4/21/2023 16:05:11.610,1.32,0.063,-0.133
4/21/2023 16:05:11.620,1.367,0.008,-0.156
4/21/2023 16:05:11.630,1.445,-0.012,-0.156
4/21/2023 16:05:11.640,1.531,0.004,-0.211
4/21/2023 16:05:11.650,1.586,-0.055,-0.25
4/21/2023 16:05:11.660,1.641,-0.129,-0.211
4/21/2023 16:05:11.670,1.699,-0.188,-0.16
4/21/2023 16:05:11.680,1.738,-0.23,-0.117
4/21/2023 16:05:11.690,1.813,-0.305,-0.18
4/21/2023 16:05:11.700,1.906,-0.383,-0.383
4/21/2023 16:05:11.710,2.023,-0.523,-0.617
4/21/2023 16:05:11.720,2.145,-0.785,-0.805
4/21/2023 16:05:11.730,2.195,-1.109,-0.98
4/21/2023 16:05:11.740,2.129,-1.195,-0.883
4/21/2023 16:05:11.750,1.961,-0.984,-0.734
4/21/2023 16:05:11.760,1.906,-0.543,-0.586
4/21/2023 16:05:11.770,2.172,-0.016,-0.645
4/21/2023 16:05:11.780,2.281,0.043,-0.813
4/21/2023 16:05:11.790,2.289,-0.125,-0.98
4/21/2023 16:05:11.800,2.176,-0.266,-1.109
4/21/2023 16:05:11.810,1.449,-0.039,-1.012
4/21/2023 16:05:11.820,0.703,0.313,-1.172
4/21/2023 16:05:11.830,0.461,0.441,-1.16
4/21/2023 16:05:11.840,0.723,0.277,-0.816
4/21/2023 16:05:11.850,0.949,-0.367,-0.672
4/21/2023 16:05:11.860,0.93,-0.863,-0.477
4/21/2023 16:05:11.870,0.738,-0.926,-0.219
4/21/2023 16:05:11.880,0.477,-0.844,0.105
4/21/2023 16:05:11.890,0.238,-0.832,0.215
4/21/2023 16:05:11.900,0.125,-0.738,0.102
4/21/2023 16:05:11.910,0.121,-0.57,-0.047
4/21/2023 16:05:11.920,0.148,-0.445,-0.172
4/21/2023 16:05:11.930,0.188,-0.441,-0.191
4/21/2023 16:05:11.940,0.238,-0.57,-0.16
4/21/2023 16:05:11.950,0.336,-0.727,-0.133
4/21/2023 16:05:11.960,0.496,-0.742,-0.188
4/21/2023 16:05:11.970,0.695,-0.594,-0.277
4/21/2023 16:05:11.980,0.859,-0.438,-0.363
4/21/2023 16:05:11.990,1.012,-0.375,-0.418
4/21/2023 16:05:12.000,1.172,-0.371,-0.418
4/21/2023 16:05:12.010,1.355,-0.402,-0.375
4/21/2023 16:05:12.020,1.539,-0.41,-0.336
4/21/2023 16:05:12.030,1.738,-0.332,-0.316
4/21/2023 16:05:12.040,1.973,-0.16,-0.262
4/21/2023 16:05:12.050,2.234,0.109,-0.199
4/21/2023 16:05:12.060,2.551,0.484,-0.141
4/21/2023 16:05:12.070,2.969,0.922,-0.008
4/21/2023 16:05:12.080,3.371,1.414,0.188
4/21/2023 16:05:12.090,3.605,1.855,0.297
4/21/2023 16:05:12.100,3.578,2.32,0.281
4/21/2023 16:05:12.110,3.301,2.922,0.254
4/21/2023 16:05:12.120,2.836,3.547,0.277
4/21/2023 16:05:12.130,2.297,4.012,0.344
4/21/2023 16:05:12.140,1.848,4.262,0.395
4/21/2023 16:05:12.150,1.613,4.324,0.379
4/21/2023 16:05:12.160,1.637,4.262,0.313
4/21/2023 16:05:12.170,1.816,4.016,0.098
4/21/2023 16:05:12.180,1.855,2.441,-0.781
4/21/2023 16:05:12.190,1.477,-2.043,-1.754
4/21/2023 16:05:12.200,1.43,-4.797,-0.613
4/21/2023 16:05:12.210,1.066,-2.457,0.035
4/21/2023 16:05:12.220,1.668,1.242,1.176
4/21/2023 16:05:12.230,2.383,2.277,0.828
4/21/2023 16:05:12.240,2.574,0.57,-0.117
4/21/2023 16:05:12.250,2.617,-0.195,-0.105
4/21/2023 16:05:12.260,1.789,0.102,-0.051
4/21/2023 16:05:12.270,0.82,0.289,-0.238
4/21/2023 16:05:12.280,0.336,0.281,-0.336
4/21/2023 16:05:12.290,0.328,0.293,-0.227
4/21/2023 16:05:12.300,0.543,0.383,-0.254
4/21/2023 16:05:12.310,0.77,0.387,-0.434
4/21/2023 16:05:12.320,0.973,0.32,-0.516
4/21/2023 16:05:12.330,1.07,0.352,-0.5
4/21/2023 16:05:12.340,1.051,0.414,-0.41
4/21/2023 16:05:12.350,1.008,0.277,-0.246
4/21/2023 16:05:12.360,1.012,0.078,-0.121
4/21/2023 16:05:12.370,1.055,-0.027,-0.098
4/21/2023 16:05:12.380,1.078,-0.078,-0.082
4/21/2023 16:05:12.390,1.102,-0.086,-0.086
4/21/2023 16:05:12.400,1.102,-0.086,-0.094
4/21/2023 16:05:12.410,1.09,-0.074,-0.109
4/21/2023 16:05:12.420,1.066,-0.023,-0.188
4/21/2023 16:05:12.430,0.996,0.07,-0.285
4/21/2023 16:05:12.440,0.906,0.133,-0.316
4/21/2023 16:05:12.450,0.855,0.129,-0.281
4/21/2023 16:05:12.460,0.859,0.137,-0.219
4/21/2023 16:05:12.470,0.895,0.184,-0.184
4/21/2023 16:05:12.480,0.945,0.227,-0.238
4/21/2023 16:05:12.490,1,0.223,-0.336
4/21/2023 16:05:12.500,1.055,0.195,-0.336
4/21/2023 16:05:12.510,1.117,0.199,-0.25
4/21/2023 16:05:12.520,1.121,0.145,-0.16
4/21/2023 16:05:12.530,1.063,0.039,-0.086
4/21/2023 16:05:12.540,1.008,-0.027,-0.082
4/21/2023 16:05:12.550,0.957,0.051,-0.199
4/21/2023 16:05:12.560,1.008,0.125,-0.293
4/21/2023 16:05:12.570,1.113,0.125,-0.281
4/21/2023 16:05:12.580,1.203,0.129,-0.273
4/21/2023 16:05:12.590,1.281,0.082,-0.289
4/21/2023 16:05:12.600,1.398,0.066,-0.305
4/21/2023 16:05:12.610,1.477,0.07,-0.281
4/21/2023 16:05:12.620,1.551,0.055,-0.191
4/21/2023 16:05:12.630,1.613,0.004,-0.094
4/21/2023 16:05:12.640,1.66,-0.063,-0.066
4/21/2023 16:05:12.650,1.695,-0.137,-0.141
4/21/2023 16:05:12.660,1.754,-0.195,-0.34
4/21/2023 16:05:12.670,1.801,-0.203,-0.563
4/21/2023 16:05:12.680,1.887,-0.313,-0.691
4/21/2023 16:05:12.690,2.039,-0.516,-0.766
4/21/2023 16:05:12.700,2.207,-0.859,-0.855
4/21/2023 16:05:12.710,2.289,-1.066,-0.824
4/21/2023 16:05:12.720,2.281,-1.004,-0.566
4/21/2023 16:05:12.730,2.117,-0.816,-0.406
4/21/2023 16:05:12.740,2.156,-0.414,-0.441
4/21/2023 16:05:12.750,2.281,-0.352,-0.773
4/21/2023 16:05:12.760,2.305,-0.453,-0.82
4/21/2023 16:05:12.770,2.402,-0.422,-1.324
4/21/2023 16:05:12.780,2.043,-0.281,-1.129
4/21/2023 16:05:12.790,1.02,0.172,-1.133
4/21/2023 16:05:12.800,0.406,0.371,-1.305
4/21/2023 16:05:12.810,0.531,0.223,-1.066
4/21/2023 16:05:12.820,0.867,-0.359,-0.844
4/21/2023 16:05:12.830,0.992,-0.969,-0.656
4/21/2023 16:05:12.840,0.859,-1.164,-0.367
4/21/2023 16:05:12.850,0.578,-1.016,0.004
4/21/2023 16:05:12.860,0.262,-0.938,0.164
4/21/2023 16:05:12.870,0.074,-0.832,0.094
4/21/2023 16:05:12.880,0.074,-0.586,-0.023
4/21/2023 16:05:12.890,0.137,-0.363,-0.16
4/21/2023 16:05:12.900,0.211,-0.324,-0.195
4/21/2023 16:05:12.910,0.285,-0.52,-0.188
4/21/2023 16:05:12.920,0.41,-0.746,-0.141
4/21/2023 16:05:12.930,0.602,-0.668,-0.168
4/21/2023 16:05:12.940,0.859,-0.543,-0.223
4/21/2023 16:05:12.950,1.086,-0.391,-0.289
4/21/2023 16:05:12.960,1.242,-0.359,-0.348
4/21/2023 16:05:12.970,1.387,-0.461,-0.316
4/21/2023 16:05:12.980,1.543,-0.48,-0.285
4/21/2023 16:05:12.990,1.785,-0.426,-0.262
4/21/2023 16:05:13.000,2.086,-0.293,-0.246
4/21/2023 16:05:13.010,2.402,-0.055,-0.199
4/21/2023 16:05:13.020,2.727,0.34,-0.125
4/21/2023 16:05:13.030,3.121,0.922,-0.004
4/21/2023 16:05:13.040,3.547,1.559,0.145
4/21/2023 16:05:13.050,3.781,2.02,0.215
4/21/2023 16:05:13.060,3.617,2.453,0.164
4/21/2023 16:05:13.070,3.219,3.109,0.078
4/21/2023 16:05:13.080,2.758,3.887,0.043
4/21/2023 16:05:13.090,2.281,4.496,0.164
4/21/2023 16:05:13.100,1.867,4.723,0.352
4/21/2023 16:05:13.110,1.672,4.633,0.387
4/21/2023 16:05:13.120,1.828,4.18,0.039
4/21/2023 16:05:13.130,1.742,3.238,-1.063
4/21/2023 16:05:13.140,1.379,0.324,-1.906
4/21/2023 16:05:13.150,1.613,-3.121,-0.984
4/21/2023 16:05:13.160,1.711,-1.941,0.262
4/21/2023 16:05:13.170,1.832,1.027,0.805
4/21/2023 16:05:13.180,2.273,1.723,0.676
4/21/2023 16:05:13.190,2.27,0.34,0.188
4/21/2023 16:05:13.200,2.008,-0.254,0.039
4/21/2023 16:05:13.210,1.422,0.113,-0.066
4/21/2023 16:05:13.220,0.758,0.414,-0.172
4/21/2023 16:05:13.230,0.449,0.441,-0.316
4/21/2023 16:05:13.240,0.59,0.324,-0.172
4/21/2023 16:05:13.250,0.781,0.34,-0.125
4/21/2023 16:05:13.260,0.887,0.43,-0.277
4/21/2023 16:05:13.270,0.988,0.336,-0.41
4/21/2023 16:05:13.280,1.094,0.316,-0.418
4/21/2023 16:05:13.290,1.152,0.355,-0.41
4/21/2023 16:05:13.300,1.133,0.289,-0.383
4/21/2023 16:05:13.310,1.09,0.125,-0.293
4/21/2023 16:05:13.320,1.051,0.012,-0.203
4/21/2023 16:05:13.330,1.012,-0.09,-0.188
4/21/2023 16:05:13.340,0.953,-0.141,-0.191
4/21/2023 16:05:13.350,0.926,-0.152,-0.184
4/21/2023 16:05:13.360,0.941,-0.148,-0.199
4/21/2023 16:05:13.370,0.984,-0.09,-0.227
4/21/2023 16:05:13.380,1.004,-0.027,-0.332
4/21/2023 16:05:13.390,0.965,0.078,-0.383
4/21/2023 16:05:13.400,0.906,0.133,-0.348
4/21/2023 16:05:13.410,0.891,0.109,-0.293
4/21/2023 16:05:13.420,0.93,0.082,-0.23
4/21/2023 16:05:13.430,1.004,0.098,-0.215
4/21/2023 16:05:13.440,1.07,0.203,-0.293
4/21/2023 16:05:13.450,1.105,0.25,-0.371
4/21/2023 16:05:13.460,1.133,0.223,-0.359
4/21/2023 16:05:13.470,1.16,0.145,-0.246
4/21/2023 16:05:13.480,1.094,0.016,-0.133
4/21/2023 16:05:13.490,1.008,-0.043,-0.031
4/21/2023 16:05:13.500,0.965,-0.051,-0.043
4/21/2023 16:05:13.510,0.973,0.039,-0.238
4/21/2023 16:05:13.520,1.074,0.086,-0.316
4/21/2023 16:05:13.530,1.215,0.07,-0.367
4/21/2023 16:05:13.540,1.301,0.074,-0.363
4/21/2023 16:05:13.550,1.406,0.012,-0.34
4/21/2023 16:05:13.560,1.496,-0.063,-0.328
4/21/2023 16:05:13.570,1.574,-0.074,-0.293
4/21/2023 16:05:13.580,1.664,-0.086,-0.211
4/21/2023 16:05:13.590,1.723,-0.117,-0.18
4/21/2023 16:05:13.600,1.723,-0.258,-0.164
4/21/2023 16:05:13.610,1.809,-0.398,-0.191
4/21/2023 16:05:13.620,1.922,-0.531,-0.363
4/21/2023 16:05:13.630,2.066,-0.715,-0.539
4/21/2023 16:05:13.640,2.23,-1.039,-0.727
4/21/2023 16:05:13.650,2.293,-1.406,-0.77
4/21/2023 16:05:13.660,2.145,-1.453,-0.625
4/21/2023 16:05:13.670,2.105,-1.008,-0.352
4/21/2023 16:05:13.680,2.383,-0.297,-0.398
4/21/2023 16:05:13.690,2.375,-0.184,-0.559
4/21/2023 16:05:13.700,2.375,-0.152,-1.043
4/21/2023 16:05:13.710,2.398,-0.301,-1.109
4/21/2023 16:05:13.720,1.563,0.078,-0.891
4/21/2023 16:05:13.730,0.508,0.734,-0.969
4/21/2023 16:05:13.740,0.035,0.863,-1.129
4/21/2023 16:05:13.750,0.426,0.41,-0.895
4/21/2023 16:05:13.760,0.895,-0.422,-0.762
4/21/2023 16:05:13.770,1.035,-0.961,-0.641
4/21/2023 16:05:13.780,0.879,-1.133,-0.469
4/21/2023 16:05:13.790,0.594,-1.109,-0.141
4/21/2023 16:05:13.800,0.277,-0.988,0.148
4/21/2023 16:05:13.810,0.027,-0.805,0.117
4/21/2023 16:05:13.820,-0.043,-0.617,-0.059
4/21/2023 16:05:13.830,0.055,-0.527,-0.156
4/21/2023 16:05:13.840,0.203,-0.547,-0.125
4/21/2023 16:05:13.850,0.32,-0.703,-0.059
4/21/2023 16:05:13.860,0.426,-0.875,-0.008
4/21/2023 16:05:13.870,0.57,-0.895,-0.035
4/21/2023 16:05:13.880,0.754,-0.746,-0.098
4/21/2023 16:05:13.890,0.914,-0.566,-0.168
4/21/2023 16:05:13.900,1.047,-0.445,-0.199
4/21/2023 16:05:13.910,1.168,-0.426,-0.211
4/21/2023 16:05:13.920,1.332,-0.457,-0.238
4/21/2023 16:05:13.930,1.563,-0.418,-0.273
4/21/2023 16:05:13.940,1.836,-0.262,-0.316
4/21/2023 16:05:13.950,2.082,-0.063,-0.379
4/21/2023 16:05:13.960,2.305,0.184,-0.465
4/21/2023 16:05:13.970,2.613,0.527,-0.477
4/21/2023 16:05:13.980,3.031,1.008,-0.398
4/21/2023 16:05:13.990,3.461,1.551,-0.305
4/21/2023 16:05:14.000,3.578,2.031,-0.246
4/21/2023 16:05:14.010,3.328,2.598,-0.168
4/21/2023 16:05:14.020,2.93,3.277,-0.02
4/21/2023 16:05:14.030,2.453,3.801,0.137
4/21/2023 16:05:14.040,1.992,4.121,0.219
4/21/2023 16:05:14.050,1.684,4.246,0.262
4/21/2023 16:05:14.060,1.66,4.211,0.434
4/21/2023 16:05:14.070,1.816,4.086,0.539
4/21/2023 16:05:14.080,1.98,3.578,0.035
4/21/2023 16:05:14.090,1.852,1.219,-0.934
4/21/2023 16:05:14.100,1.477,-2.973,-1.172
4/21/2023 16:05:14.110,1.418,-4.031,0.133
4/21/2023 16:05:14.120,1.301,-1.379,0.691
4/21/2023 16:05:14.130,2.012,1.727,1.152
4/21/2023 16:05:14.140,2.484,1.746,0.344
4/21/2023 16:05:14.150,2.531,0.48,-0.262
4/21/2023 16:05:14.160,2.133,0.254,-0.344
4/21/2023 16:05:14.170,1.297,0.441,-0.25
4/21/2023 16:05:14.180,0.668,0.363,-0.176
4/21/2023 16:05:14.190,0.398,0.242,-0.188
4/21/2023 16:05:14.200,0.418,0.242,-0.27
4/21/2023 16:05:14.210,0.625,0.34,-0.453
4/21/2023 16:05:14.220,0.891,0.391,-0.559
4/21/2023 16:05:14.230,1.066,0.379,-0.566
4/21/2023 16:05:14.240,1.059,0.367,-0.547
4/21/2023 16:05:14.250,0.996,0.254,-0.383
4/21/2023 16:05:14.260,1.016,0.078,-0.117
4/21/2023 16:05:14.270,1.043,-0.039,-0.004
4/21/2023 16:05:14.280,1.07,-0.117,0.02
4/21/2023 16:05:14.290,1.078,-0.152,-0.035
4/21/2023 16:05:14.300,1.125,-0.16,-0.074
4/21/2023 16:05:14.310,1.176,-0.137,-0.137
4/21/2023 16:05:14.320,1.137,-0.051,-0.223
4/21/2023 16:05:14.330,1.008,0.016,-0.254
4/21/2023 16:05:14.340,0.895,0.035,-0.262
4/21/2023 16:05:14.350,0.859,0.051,-0.238
4/21/2023 16:05:14.360,0.875,0.07,-0.215
4/21/2023 16:05:14.370,0.918,0.105,-0.215
4/21/2023 16:05:14.380,0.969,0.172,-0.23
4/21/2023 16:05:14.390,0.996,0.172,-0.242
4/21/2023 16:05:14.400,1.02,0.148,-0.195
4/21/2023 16:05:14.410,1.051,0.113,-0.145
4/21/2023 16:05:14.420,1.078,0.086,-0.125
4/21/2023 16:05:14.430,1.105,0.086,-0.094
4/21/2023 16:05:14.440,1.129,0.109,-0.086
4/21/2023 16:05:14.450,1.121,0.109,-0.098
4/21/2023 16:05:14.460,1.117,0.133,-0.094
4/21/2023 16:05:14.470,1.16,0.137,-0.109
4/21/2023 16:05:14.480,1.227,0.152,-0.176
4/21/2023 16:05:14.490,1.254,0.113,-0.172
4/21/2023 16:05:14.500,1.355,0.09,-0.215
4/21/2023 16:05:14.510,1.426,0.055,-0.211
4/21/2023 16:05:14.520,1.488,-0.023,-0.16
4/21/2023 16:05:14.530,1.555,-0.07,-0.109
4/21/2023 16:05:14.540,1.59,-0.125,-0.07
4/21/2023 16:05:14.550,1.625,-0.168,-0.063
4/21/2023 16:05:14.560,1.711,-0.219,-0.172
4/21/2023 16:05:14.570,1.813,-0.32,-0.363
4/21/2023 16:05:14.580,1.914,-0.461,-0.5
4/21/2023 16:05:14.590,2.016,-0.727,-0.633
4/21/2023 16:05:14.600,2.098,-1.008,-0.773
4/21/2023 16:05:14.610,2.051,-1.215,-0.762
4/21/2023 16:05:14.620,1.863,-1.074,-0.625
4/21/2023 16:05:14.630,1.965,-0.484,-0.328
4/21/2023 16:05:14.640,2.359,0.004,-0.344
4/21/2023 16:05:14.650,2.387,-0.16,-0.703
4/21/2023 16:05:14.660,2.352,-0.285,-1.09
4/21/2023 16:05:14.670,2.293,-0.258,-1.156
4/21/2023 16:05:14.680,1.523,0.184,-0.949
4/21/2023 16:05:14.690,0.586,0.652,-1.133
4/21/2023 16:05:14.700,0.332,0.699,-1.246
4/21/2023 16:05:14.710,0.73,0.301,-0.969
4/21/2023 16:05:14.720,1.02,-0.426,-0.805
4/21/2023 16:05:14.730,1.02,-0.934,-0.59
4/21/2023 16:05:14.740,0.813,-0.988,-0.313
4/21/2023 16:05:14.750,0.551,-0.824,-0.078
4/21/2023 16:05:14.760,0.273,-0.766,0.055
4/21/2023 16:05:14.770,0.133,-0.734,0.074
4/21/2023 16:05:14.780,0.125,-0.641,0.055
4/21/2023 16:05:14.790,0.172,-0.57,-0.004
4/21/2023 16:05:14.800,0.223,-0.578,-0.004
4/21/2023 16:05:14.810,0.273,-0.656,0.027
4/21/2023 16:05:14.820,0.328,-0.789,0.059
4/21/2023 16:05:14.830,0.438,-0.883,0.055
4/21/2023 16:05:14.840,0.605,-0.84,-0.016
4/21/2023 16:05:14.850,0.781,-0.73,-0.094
4/21/2023 16:05:14.860,0.934,-0.648,-0.164
4/21/2023 16:05:14.870,1.078,-0.609,-0.207
4/21/2023 16:05:14.880,1.25,-0.621,-0.211
4/21/2023 16:05:14.890,1.473,-0.609,-0.203
4/21/2023 16:05:14.900,1.723,-0.512,-0.199
4/21/2023 16:05:14.910,1.988,-0.359,-0.207
4/21/2023 16:05:14.920,2.273,-0.109,-0.223
4/21/2023 16:05:14.930,2.578,0.277,-0.246
4/21/2023 16:05:14.940,2.973,0.777,-0.219
4/21/2023 16:05:14.950,3.406,1.32,-0.113
4/21/2023 16:05:14.960,3.598,1.867,-0.137
4/21/2023 16:05:14.970,3.473,2.527,-0.23
4/21/2023 16:05:14.980,3.148,3.398,-0.23
4/21/2023 16:05:14.990,2.691,4.148,-0.047
4/21/2023 16:05:15.000,2.199,4.512,0.242
4/21/2023 16:05:15.010,1.836,4.539,0.449
4/21/2023 16:05:15.020,1.695,4.449,0.473
4/21/2023 16:05:15.030,1.914,4.023,0.109
4/21/2023 16:05:15.040,1.848,2.621,-0.836
4/21/2023 16:05:15.050,1.555,-0.961,-1.391
4/21/2023 16:05:15.060,1.922,-3.5,-0.047
4/21/2023 16:05:15.070,1.973,-1.164,0.742
4/21/2023 16:05:15.080,2.316,1.969,1.094
4/21/2023 16:05:15.090,2.531,1.863,0.297
4/21/2023 16:05:15.100,2.246,0.453,-0.473
4/21/2023 16:05:15.110,1.801,0.215,-0.492
4/21/2023 16:05:15.120,1.047,0.512,-0.203
4/21/2023 16:05:15.130,0.41,0.477,-0.035
4/21/2023 16:05:15.140,0.219,0.277,-0.027
4/21/2023 16:05:15.150,0.391,0.281,-0.23
4/21/2023 16:05:15.160,0.719,0.32,-0.391
4/21/2023 16:05:15.170,0.992,0.34,-0.484
4/21/2023 16:05:15.180,1.098,0.477,-0.461
4/21/2023 16:05:15.190,1.086,0.375,-0.414
4/21/2023 16:05:15.200,1.105,0.18,-0.281
4/21/2023 16:05:15.210,1.137,0.125,-0.098
4/21/2023 16:05:15.220,1.113,0.094,-0.039
4/21/2023 16:05:15.230,1.07,0.008,0.012
4/21/2023 16:05:15.240,1.059,-0.07,-0.008
4/21/2023 16:05:15.250,1.086,-0.078,-0.094
4/21/2023 16:05:15.260,1.102,-0.043,-0.152
4/21/2023 16:05:15.270,1.047,0,-0.16
4/21/2023 16:05:15.280,0.938,0.047,-0.168
4/21/2023 16:05:15.290,0.871,0.117,-0.164
4/21/2023 16:05:15.300,0.887,0.109,-0.156
4/21/2023 16:05:15.310,0.934,0.105,-0.156
4/21/2023 16:05:15.320,1,0.129,-0.133
4/21/2023 16:05:15.330,1.063,0.184,-0.164
4/21/2023 16:05:15.340,1.082,0.238,-0.211
4/21/2023 16:05:15.350,1.102,0.211,-0.227
4/21/2023 16:05:15.360,1.113,0.176,-0.211
4/21/2023 16:05:15.370,1.109,0.137,-0.176
4/21/2023 16:05:15.380,1.105,0.094,-0.098
4/21/2023 16:05:15.390,1.078,0.059,-0.047
4/21/2023 16:05:15.400,1.047,0.059,-0.043
4/21/2023 16:05:15.410,1.098,0.09,-0.09
4/21/2023 16:05:15.420,1.172,0.113,-0.184
4/21/2023 16:05:15.430,1.203,0.074,-0.184
4/21/2023 16:05:15.440,1.309,0.078,-0.219
4/21/2023 16:05:15.450,1.395,0.055,-0.277
4/21/2023 16:05:15.460,1.477,-0.008,-0.293
4/21/2023 16:05:15.470,1.527,-0.066,-0.266
4/21/2023 16:05:15.480,1.566,-0.109,-0.203
4/21/2023 16:05:15.490,1.613,-0.145,-0.141
4/21/2023 16:05:15.500,1.68,-0.199,-0.145
4/21/2023 16:05:15.510,1.793,-0.32,-0.254
4/21/2023 16:05:15.520,1.922,-0.438,-0.426
4/21/2023 16:05:15.530,2.063,-0.625,-0.625
4/21/2023 16:05:15.540,2.191,-0.891,-0.816
4/21/2023 16:05:15.550,2.215,-1.109,-0.828
4/21/2023 16:05:15.560,2.09,-1.102,-0.75
4/21/2023 16:05:15.570,1.953,-0.734,-0.68
4/21/2023 16:05:15.580,2.176,-0.168,-0.523
4/21/2023 16:05:15.590,2.266,-0.051,-0.734
4/21/2023 16:05:15.600,2.23,-0.109,-0.863
4/21/2023 16:05:15.610,2.266,-0.176,-1.117
4/21/2023 16:05:15.620,1.68,0.121,-0.961
4/21/2023 16:05:15.630,0.715,0.566,-1.004
4/21/2023 16:05:15.640,0.344,0.645,-1.074
4/21/2023 16:05:15.650,0.605,0.313,-0.867
4/21/2023 16:05:15.660,0.898,-0.352,-0.734
4/21/2023 16:05:15.670,0.953,-0.863,-0.555
4/21/2023 16:05:15.680,0.801,-0.996,-0.277
4/21/2023 16:05:15.690,0.543,-0.922,0.023
4/21/2023 16:05:15.700,0.254,-0.887,0.117
4/21/2023 16:05:15.710,0.105,-0.781,0.055
4/21/2023 16:05:15.720,0.137,-0.559,-0.016
4/21/2023 16:05:15.730,0.211,-0.418,-0.094
4/21/2023 16:05:15.740,0.254,-0.438,-0.098
4/21/2023 16:05:15.750,0.285,-0.563,-0.031
4/21/2023 16:05:15.760,0.316,-0.723,0.039
4/21/2023 16:05:15.770,0.391,-0.801,0.051
4/21/2023 16:05:15.780,0.527,-0.77,0.004
4/21/2023 16:05:15.790,0.699,-0.684,-0.051
4/21/2023 16:05:15.800,0.867,-0.617,-0.09
4/21/2023 16:05:15.810,1.02,-0.582,-0.145
4/21/2023 16:05:15.820,1.191,-0.563,-0.168
4/21/2023 16:05:15.830,1.395,-0.586,-0.148
4/21/2023 16:05:15.840,1.637,-0.555,-0.145
4/21/2023 16:05:15.850,1.879,-0.418,-0.176
4/21/2023 16:05:15.860,2.164,-0.184,-0.211
4/21/2023 16:05:15.870,2.484,0.191,-0.246
4/21/2023 16:05:15.880,2.844,0.695,-0.238
4/21/2023 16:05:15.890,3.211,1.281,-0.184
4/21/2023 16:05:15.900,3.41,1.926,-0.219
4/21/2023 16:05:15.910,3.406,2.645,-0.262
4/21/2023 16:05:15.920,3.219,3.418,-0.137
4/21/2023 16:05:15.930,2.867,4.059,0.098
4/21/2023 16:05:15.940,2.41,4.383,0.262
4/21/2023 16:05:15.950,2,4.516,0.426
4/21/2023 16:05:15.960,1.805,4.547,0.559
4/21/2023 16:05:15.970,1.891,4.426,0.359
4/21/2023 16:05:15.980,1.941,3.113,-0.305
4/21/2023 16:05:15.990,1.586,-0.242,-0.988
4/21/2023 16:05:16.000,1.598,-3.984,-0.25
4/21/2023 16:05:16.010,1.637,-2.879,0.629
4/21/2023 16:05:16.020,1.883,0.527,1.184
4/21/2023 16:05:16.030,2.441,2.34,0.891
4/21/2023 16:05:16.040,2.445,1.219,-0.035
4/21/2023 16:05:16.050,2.18,0.25,-0.313
4/21/2023 16:05:16.060,1.5,0.203,-0.297
4/21/2023 16:05:16.070,0.738,0.289,-0.258
4/21/2023 16:05:16.080,0.313,0.203,-0.258
4/21/2023 16:05:16.090,0.27,0.246,-0.309
4/21/2023 16:05:16.100,0.516,0.395,-0.461
4/21/2023 16:05:16.110,0.828,0.406,-0.551
4/21/2023 16:05:16.120,1.059,0.391,-0.445
4/21/2023 16:05:16.130,1.09,0.414,-0.398
4/21/2023 16:05:16.140,1.051,0.375,-0.395
4/21/2023 16:05:16.150,1.078,0.238,-0.25
4/21/2023 16:05:16.160,1.09,0.082,-0.086
4/21/2023 16:05:16.170,1.043,-0.035,-0.004
4/21/2023 16:05:16.180,0.996,-0.117,-0.02
4/21/2023 16:05:16.190,1.035,-0.156,-0.07
4/21/2023 16:05:16.200,1.129,-0.172,-0.141
4/21/2023 16:05:16.210,1.152,-0.168,-0.184
4/21/2023 16:05:16.220,1.086,-0.066,-0.273
4/21/2023 16:05:16.230,0.957,0.07,-0.332
4/21/2023 16:05:16.240,0.832,0.117,-0.348
4/21/2023 16:05:16.250,0.809,0.117,-0.309
4/21/2023 16:05:16.260,0.91,0.094,-0.242
4/21/2023 16:05:16.270,1.016,0.152,-0.215
4/21/2023 16:05:16.280,1.094,0.219,-0.215
4/21/2023 16:05:16.290,1.125,0.188,-0.246
4/21/2023 16:05:16.300,1.09,0.125,-0.25
4/21/2023 16:05:16.310,1.063,0.07,-0.184
4/21/2023 16:05:16.320,1.074,0.059,-0.125
4/21/2023 16:05:16.330,1.07,0.023,-0.117
4/21/2023 16:05:16.340,1.051,0.012,-0.117
4/21/2023 16:05:16.350,1.082,0.039,-0.141
4/21/2023 16:05:16.360,1.176,0.082,-0.258
4/21/2023 16:05:16.370,1.23,0.098,-0.32
4/21/2023 16:05:16.380,1.273,0.035,-0.285
4/21/2023 16:05:16.390,1.328,-0.027,-0.23
4/21/2023 16:05:16.400,1.402,-0.027,-0.262
4/21/2023 16:05:16.410,1.461,-0.047,-0.316
4/21/2023 16:05:16.420,1.508,-0.105,-0.281
4/21/2023 16:05:16.430,1.566,-0.121,-0.18
4/21/2023 16:05:16.440,1.641,-0.18,-0.094
4/21/2023 16:05:16.450,1.75,-0.242,-0.113
4/21/2023 16:05:16.460,1.855,-0.34,-0.23
4/21/2023 16:05:16.470,1.961,-0.508,-0.379
4/21/2023 16:05:16.480,2.055,-0.707,-0.539
4/21/2023 16:05:16.490,2.121,-0.969,-0.742
4/21/2023 16:05:16.500,2.086,-1.203,-0.785
4/21/2023 16:05:16.510,1.938,-1.23,-0.723
4/21/2023 16:05:16.520,1.871,-0.789,-0.578
4/21/2023 16:05:16.530,2.211,-0.109,-0.453
4/21/2023 16:05:16.540,2.324,0.008,-0.719
4/21/2023 16:05:16.550,2.281,-0.074,-0.945
4/21/2023 16:05:16.560,2.262,-0.152,-1.184
4/21/2023 16:05:16.570,1.707,0.047,-0.977
4/21/2023 16:05:16.580,0.793,0.469,-0.977
4/21/2023 16:05:16.590,0.379,0.66,-1.105
4/21/2023 16:05:16.600,0.605,0.371,-0.934
4/21/2023 16:05:16.610,0.902,-0.281,-0.801
4/21/2023 16:05:16.620,0.977,-0.813,-0.688
4/21/2023 16:05:16.630,0.852,-0.98,-0.434
4/21/2023 16:05:16.640,0.57,-0.961,-0.117
4/21/2023 16:05:16.650,0.238,-0.922,0.059
4/21/2023 16:05:16.660,0.012,-0.793,0.055
4/21/2023 16:05:16.670,-0.012,-0.621,-0.043
4/21/2023 16:05:16.680,0.094,-0.508,-0.113
4/21/2023 16:05:16.690,0.215,-0.48,-0.098
4/21/2023 16:05:16.700,0.301,-0.563,-0.027
4/21/2023 16:05:16.710,0.352,-0.691,0.023
4/21/2023 16:05:16.720,0.43,-0.758,0.012
4/21/2023 16:05:16.730,0.563,-0.73,-0.043
4/21/2023 16:05:16.740,0.723,-0.652,-0.113
4/21/2023 16:05:16.750,0.875,-0.586,-0.16
4/21/2023 16:05:16.760,1.023,-0.543,-0.195
4/21/2023 16:05:16.770,1.191,-0.523,-0.195
4/21/2023 16:05:16.780,1.379,-0.516,-0.195
4/21/2023 16:05:16.790,1.605,-0.461,-0.211
4/21/2023 16:05:16.800,1.867,-0.301,-0.203
4/21/2023 16:05:16.810,2.129,-0.066,-0.219
4/21/2023 16:05:16.820,2.387,0.227,-0.277
4/21/2023 16:05:16.830,2.75,0.641,-0.297
4/21/2023 16:05:16.840,3.234,1.203,-0.246
4/21/2023 16:05:16.850,3.555,1.813,-0.313
4/21/2023 16:05:16.860,3.504,2.457,-0.406
4/21/2023 16:05:16.870,3.16,3.238,-0.344
4/21/2023 16:05:16.880,2.723,3.945,-0.07
4/21/2023 16:05:16.890,2.262,4.32,0.262
4/21/2023 16:05:16.900,1.875,4.406,0.426
4/21/2023 16:05:16.910,1.711,4.328,0.598
4/21/2023 16:05:16.920,1.828,4.148,0.684
4/21/2023 16:05:16.930,1.988,3.152,-0.012
4/21/2023 16:05:16.940,1.688,0.332,-1.254
4/21/2023 16:05:16.950,1.574,-3.504,-0.984
4/21/2023 16:05:16.960,1.637,-3.125,0.352
4/21/2023 16:05:16.970,1.848,0.277,1.203
4/21/2023 16:05:16.980,2.496,2.387,1.039
4/21/2023 16:05:16.990,2.617,1.164,-0.051
4/21/2023 16:05:17.000,2.461,0.152,-0.391
4/21/2023 16:05:17.010,1.719,0.293,-0.285
4/21/2023 16:05:17.020,0.781,0.465,-0.191
4/21/2023 16:05:17.030,0.285,0.379,-0.129
4/21/2023 16:05:17.040,0.25,0.285,-0.195
4/21/2023 16:05:17.050,0.48,0.293,-0.367
4/21/2023 16:05:17.060,0.785,0.359,-0.484
4/21/2023 16:05:17.070,0.996,0.367,-0.531
4/21/2023 16:05:17.080,1.055,0.375,-0.527
4/21/2023 16:05:17.090,1.012,0.32,-0.492
4/21/2023 16:05:17.100,1.012,0.176,-0.277
4/21/2023 16:05:17.110,1.051,0.063,-0.07
4/21/2023 16:05:17.120,1.074,-0.02,-0.02
4/21/2023 16:05:17.130,1.086,-0.063,-0.035
4/21/2023 16:05:17.140,1.102,-0.078,-0.082
4/21/2023 16:05:17.150,1.125,-0.074,-0.105
4/21/2023 16:05:17.160,1.117,-0.051,-0.148
4/21/2023 16:05:17.170,1.063,0.008,-0.203
4/21/2023 16:05:17.180,0.953,0.07,-0.246
4/21/2023 16:05:17.190,0.875,0.082,-0.25
4/21/2023 16:05:17.200,0.84,0.082,-0.273
4/21/2023 16:05:17.210,0.863,0.109,-0.242
4/21/2023 16:05:17.220,0.918,0.152,-0.223
4/21/2023 16:05:17.230,1.004,0.207,-0.238
4/21/2023 16:05:17.240,1.07,0.199,-0.262
4/21/2023 16:05:17.250,1.102,0.156,-0.246
4/21/2023 16:05:17.260,1.086,0.109,-0.184
4/21/2023 16:05:17.270,1.035,0.059,-0.113
4/21/2023 16:05:17.280,1.012,0.016,-0.063
4/21/2023 16:05:17.290,1.016,0.008,-0.129
4/21/2023 16:05:17.300,1.039,0.09,-0.227
4/21/2023 16:05:17.310,1.137,0.137,-0.25
4/21/2023 16:05:17.320,1.23,0.16,-0.328
4/21/2023 16:05:17.330,1.238,0.082,-0.293
4/21/2023 16:05:17.340,1.344,0.035,-0.293
4/21/2023 16:05:17.350,1.402,0.012,-0.316
4/21/2023 16:05:17.360,1.477,-0.027,-0.254
4/21/2023 16:05:17.370,1.543,-0.035,-0.172
4/21/2023 16:05:17.380,1.602,-0.098,-0.121
4/21/2023 16:05:17.390,1.668,-0.137,-0.086
4/21/2023 16:05:17.400,1.727,-0.195,-0.164
4/21/2023 16:05:17.410,1.793,-0.211,-0.336
4/21/2023 16:05:17.420,1.883,-0.316,-0.469
4/21/2023 16:05:17.430,2.047,-0.543,-0.598
4/21/2023 16:05:17.440,2.203,-0.797,-0.789
4/21/2023 16:05:17.450,2.266,-1.02,-0.883
4/21/2023 16:05:17.460,2.242,-1.211,-0.789
4/21/2023 16:05:17.470,1.973,-1.063,-0.797
4/21/2023 16:05:17.480,1.938,-0.441,-0.492
4/21/2023 16:05:17.490,2.156,-0.133,-0.543
4/21/2023 16:05:17.500,2.168,-0.051,-0.645
4/21/2023 16:05:17.510,2.316,-0.102,-1.043
4/21/2023 16:05:17.520,2.129,-0.07,-0.977
4/21/2023 16:05:17.530,1.172,0.359,-0.953
4/21/2023 16:05:17.540,0.469,0.555,-1.074
4/21/2023 16:05:17.550,0.477,0.387,-1
4/21/2023 16:05:17.560,0.773,-0.176,-0.836
4/21/2023 16:05:17.570,0.949,-0.82,-0.715
4/21/2023 16:05:17.580,0.898,-1.094,-0.465
4/21/2023 16:05:17.590,0.664,-1.043,-0.105
4/21/2023 16:05:17.600,0.316,-0.965,0.082
4/21/2023 16:05:17.610,0.043,-0.863,0.078
4/21/2023 16:05:17.620,-0.012,-0.66,0.02
4/21/2023 16:05:17.630,0.09,-0.512,-0.02
4/21/2023 16:05:17.640,0.207,-0.48,-0.016
4/21/2023 16:05:17.650,0.273,-0.594,0.027
4/21/2023 16:05:17.660,0.313,-0.777,0.086
4/21/2023 16:05:17.670,0.383,-0.879,0.09
4/21/2023 16:05:17.680,0.5,-0.848,0.023
4/21/2023 16:05:17.690,0.676,-0.754,-0.066
4/21/2023 16:05:17.700,0.871,-0.66,-0.133
4/21/2023 16:05:17.710,1.066,-0.605,-0.164
4/21/2023 16:05:17.720,1.242,-0.598,-0.199
4/21/2023 16:05:17.730,1.43,-0.617,-0.254
4/21/2023 16:05:17.740,1.668,-0.563,-0.305
4/21/2023 16:05:17.750,1.973,-0.406,-0.301
4/21/2023 16:05:17.760,2.316,-0.203,-0.289
4/21/2023 16:05:17.770,2.664,0.129,-0.309
4/21/2023 16:05:17.780,3.043,0.648,-0.258
4/21/2023 16:05:17.790,3.434,1.258,-0.184
4/21/2023 16:05:17.800,3.621,1.84,-0.254
4/21/2023 16:05:17.810,3.551,2.453,-0.363
4/21/2023 16:05:17.820,3.25,3.289,-0.363
4/21/2023 16:05:17.830,2.766,4.121,-0.242
4/21/2023 16:05:17.840,2.227,4.633,-0.027
4/21/2023 16:05:17.850,1.797,4.781,0.117
4/21/2023 16:05:17.860,1.797,4.594,0.117
4/21/2023 16:05:17.870,1.883,4.125,-0.152
4/21/2023 16:05:17.880,1.734,2.473,-0.777
4/21/2023 16:05:17.890,1.813,-1.875,-0.98
4/21/2023 16:05:17.900,2.355,-2.746,0.328
4/21/2023 16:05:17.910,2.418,0.711,0.875
4/21/2023 16:05:17.920,2.586,2.262,0.633
4/21/2023 16:05:17.930,2.516,1.027,-0.172
4/21/2023 16:05:17.940,2.078,0.223,-0.469
4/21/2023 16:05:17.950,1.461,0.23,-0.207
4/21/2023 16:05:17.960,0.641,0.301,-0.008
4/21/2023 16:05:17.970,0.125,0.184,0.023
4/21/2023 16:05:17.980,0.145,0.109,-0.004
4/21/2023 16:05:17.990,0.43,0.219,-0.18
4/21/2023 16:05:18.000,0.746,0.352,-0.285
4/21/2023 16:05:18.010,1.012,0.387,-0.379
4/21/2023 16:05:18.020,1.156,0.371,-0.473
4/21/2023 16:05:18.030,1.195,0.32,-0.469
4/21/2023 16:05:18.040,1.191,0.234,-0.352
4/21/2023 16:05:18.050,1.172,0.117,-0.188
4/21/2023 16:05:18.060,1.125,0.008,-0.141
4/21/2023 16:05:18.070,1.066,-0.055,-0.133
4/21/2023 16:05:18.080,1.043,-0.117,-0.094
4/21/2023 16:05:18.090,1.016,-0.176,-0.141
4/21/2023 16:05:18.100,0.98,-0.145,-0.156
4/21/2023 16:05:18.110,0.941,-0.074,-0.195
4/21/2023 16:05:18.120,0.895,0.012,-0.258
4/21/2023 16:05:18.130,0.855,0.063,-0.293
4/21/2023 16:05:18.140,0.871,0.055,-0.246
4/21/2023 16:05:18.150,0.949,0.023,-0.211
4/21/2023 16:05:18.160,1.02,0.078,-0.203
4/21/2023 16:05:18.170,1.063,0.148,-0.211
4/21/2023 16:05:18.180,1.078,0.168,-0.258
4/21/2023 16:05:18.190,1.063,0.145,-0.324
4/21/2023 16:05:18.200,1.051,0.121,-0.285
4/21/2023 16:05:18.210,1.051,0.09,-0.195
4/21/2023 16:05:18.220,1.055,0.063,-0.129
4/21/2023 16:05:18.230,1.059,0.027,-0.09
4/21/2023 16:05:18.240,1.047,0.023,-0.094
4/21/2023 16:05:18.250,1.074,0.074,-0.129
4/21/2023 16:05:18.260,1.184,0.117,-0.227
4/21/2023 16:05:18.270,1.238,0.102,-0.27
4/21/2023 16:05:18.280,1.297,0.039,-0.246
4/21/2023 16:05:18.290,1.387,0.008,-0.234
4/21/2023 16:05:18.300,1.465,-0.051,-0.254
4/21/2023 16:05:18.310,1.527,-0.047,-0.199
4/21/2023 16:05:18.320,1.582,-0.098,-0.125
4/21/2023 16:05:18.330,1.66,-0.164,-0.027
4/21/2023 16:05:18.340,1.738,-0.246,0.023
4/21/2023 16:05:18.350,1.828,-0.316,-0.094
4/21/2023 16:05:18.360,1.93,-0.387,-0.305
4/21/2023 16:05:18.370,2.059,-0.551,-0.531
4/21/2023 16:05:18.380,2.18,-0.773,-0.746
4/21/2023 16:05:18.390,2.242,-1.055,-0.941
4/21/2023 16:05:18.400,2.258,-1.277,-0.855
4/21/2023 16:05:18.410,2.098,-1.293,-0.934
4/21/2023 16:05:18.420,2.02,-0.699,-0.734
4/21/2023 16:05:18.430,2.277,-0.238,-0.551
4/21/2023 16:05:18.440,2.297,-0.039,-0.719
4/21/2023 16:05:18.450,2.332,-0.078,-1.121
4/21/2023 16:05:18.460,2.285,-0.238,-1.102
4/21/2023 16:05:18.470,1.309,0.113,-1.02
4/21/2023 16:05:18.480,0.352,0.41,-1.105
4/21/2023 16:05:18.490,0.242,0.387,-1.129
4/21/2023 16:05:18.500,0.586,-0.145,-0.969
4/21/2023 16:05:18.510,0.852,-0.785,-0.816
4/21/2023 16:05:18.520,0.852,-1.086,-0.559
4/21/2023 16:05:18.530,0.648,-1.02,-0.254
4/21/2023 16:05:18.540,0.336,-0.902,0.031
4/21/2023 16:05:18.550,0.074,-0.844,0.113
4/21/2023 16:05:18.560,0.02,-0.699,0.055
4/21/2023 16:05:18.570,0.117,-0.559,-0.051
4/21/2023 16:05:18.580,0.238,-0.504,-0.113
4/21/2023 16:05:18.590,0.324,-0.531,-0.105
4/21/2023 16:05:18.600,0.371,-0.645,-0.066
4/21/2023 16:05:18.610,0.441,-0.746,-0.02
4/21/2023 16:05:18.620,0.563,-0.73,-0.059
4/21/2023 16:05:18.630,0.727,-0.637,-0.156
4/21/2023 16:05:18.640,0.902,-0.547,-0.227
4/21/2023 16:05:18.650,1.074,-0.488,-0.262
4/21/2023 16:05:18.660,1.25,-0.465,-0.293
4/21/2023 16:05:18.670,1.441,-0.449,-0.32
4/21/2023 16:05:18.680,1.68,-0.383,-0.316
4/21/2023 16:05:18.690,1.961,-0.25,-0.305
4/21/2023 16:05:18.700,2.242,-0.063,-0.34
4/21/2023 16:05:18.710,2.504,0.258,-0.367
4/21/2023 16:05:18.720,2.828,0.707,-0.305
4/21/2023 16:05:18.730,3.227,1.27,-0.176
4/21/2023 16:05:18.740,3.492,1.793,-0.168
4/21/2023 16:05:18.750,3.469,2.324,-0.215
4/21/2023 16:05:18.760,3.164,3.047,-0.176
4/21/2023 16:05:18.770,2.738,3.742,0.008
4/21/2023 16:05:18.780,2.277,4.152,0.227
4/21/2023 16:05:18.790,1.902,4.234,0.363
4/21/2023 16:05:18.800,1.734,4.164,0.582
4/21/2023 16:05:18.810,1.766,4.059,0.785
4/21/2023 16:05:18.820,1.836,3.824,0.523
4/21/2023 16:05:18.830,1.863,2.266,-0.566
4/21/2023 16:05:18.840,1.559,-1.656,-1.586
4/21/2023 16:05:18.850,1.586,-4.18,-0.398
4/21/2023 16:05:18.860,1.41,-2.41,0.379
4/21/2023 16:05:18.870,1.996,1.242,1.059
4/21/2023 16:05:18.880,2.652,2.23,0.523
4/21/2023 16:05:18.890,2.723,0.707,-0.102
4/21/2023 16:05:18.900,2.227,0.051,-0.129
4/21/2023 16:05:18.910,1.266,0.176,-0.148
4/21/2023 16:05:18.920,0.5,0.336,-0.359
4/21/2023 16:05:18.930,0.223,0.465,-0.391
4/21/2023 16:05:18.940,0.43,0.469,-0.207
4/21/2023 16:05:18.950,0.703,0.477,-0.309
4/21/2023 16:05:18.960,0.895,0.457,-0.496
4/21/2023 16:05:18.970,1.039,0.387,-0.516
4/21/2023 16:05:18.980,1.059,0.344,-0.563
4/21/2023 16:05:18.990,0.992,0.344,-0.488
4/21/2023 16:05:19.000,0.977,0.289,-0.25
4/21/2023 16:05:19.010,1.059,0.117,-0.035
4/21/2023 16:05:19.020,1.121,-0.027,-0.012
4/21/2023 16:05:19.030,1.176,-0.086,-0.02
4/21/2023 16:05:19.040,1.152,-0.102,-0.094
4/21/2023 16:05:19.050,1.117,-0.066,-0.074
4/21/2023 16:05:19.060,1.07,-0.051,-0.039
4/21/2023 16:05:19.070,1.012,-0.02,-0.102
4/21/2023 16:05:19.080,0.945,0.074,-0.211
4/21/2023 16:05:19.090,0.891,0.148,-0.285
4/21/2023 16:05:19.100,0.859,0.172,-0.309
4/21/2023 16:05:19.110,0.859,0.191,-0.285
4/21/2023 16:05:19.120,0.898,0.227,-0.203
4/21/2023 16:05:19.130,0.992,0.266,-0.121
4/21/2023 16:05:19.140,1.086,0.262,-0.129
4/21/2023 16:05:19.150,1.156,0.191,-0.188
4/21/2023 16:05:19.160,1.188,0.137,-0.219
4/21/2023 16:05:19.170,1.211,0.141,-0.227
4/21/2023 16:05:19.180,1.215,0.148,-0.219
4/21/2023 16:05:19.190,1.188,0.094,-0.16
4/21/2023 16:05:19.200,1.121,0.031,-0.07
4/21/2023 16:05:19.210,1.098,0.031,-0.047
4/21/2023 16:05:19.220,1.156,0.098,-0.086
4/21/2023 16:05:19.230,1.203,0.035,-0.102
4/21/2023 16:05:19.240,1.297,0.027,-0.152
4/21/2023 16:05:19.250,1.395,0.012,-0.203
4/21/2023 16:05:19.260,1.496,-0.031,-0.203
4/21/2023 16:05:19.270,1.559,-0.082,-0.207
4/21/2023 16:05:19.280,1.594,-0.125,-0.188
4/21/2023 16:05:19.290,1.637,-0.148,-0.168
4/21/2023 16:05:19.300,1.711,-0.219,-0.223
4/21/2023 16:05:19.310,1.785,-0.324,-0.391
4/21/2023 16:05:19.320,1.875,-0.441,-0.551
4/21/2023 16:05:19.330,2.023,-0.641,-0.719
4/21/2023 16:05:19.340,2.164,-0.926,-0.93
4/21/2023 16:05:19.350,2.207,-1.07,-0.918
4/21/2023 16:05:19.360,2.098,-0.969,-0.816
4/21/2023 16:05:19.370,2.035,-0.48,-0.688
4/21/2023 16:05:19.380,2.281,-0.059,-0.574
4/21/2023 16:05:19.390,2.398,-0.043,-0.797
4/21/2023 16:05:19.400,2.434,-0.105,-0.938
4/21/2023 16:05:19.410,2.285,-0.129,-1.191
4/21/2023 16:05:19.420,1.449,0.195,-1.121
4/21/2023 16:05:19.430,0.605,0.527,-1.164
4/21/2023 16:05:19.440,0.496,0.531,-1.148
4/21/2023 16:05:19.450,0.758,0.027,-0.988
4/21/2023 16:05:19.460,0.957,-0.656,-0.84
4/21/2023 16:05:19.470,0.941,-1.008,-0.551
4/21/2023 16:05:19.480,0.734,-1.016,-0.113
4/21/2023 16:05:19.490,0.402,-1.027,0.16
4/21/2023 16:05:19.500,0.125,-1.02,0.184
4/21/2023 16:05:19.510,0.09,-0.82,0.125
4/21/2023 16:05:19.520,0.18,-0.621,0.039
4/21/2023 16:05:19.530,0.273,-0.523,-0.012
4/21/2023 16:05:19.540,0.332,-0.543,-0.008
4/21/2023 16:05:19.550,0.359,-0.664,0.008
4/21/2023 16:05:19.560,0.402,-0.777,0.016
4/21/2023 16:05:19.570,0.504,-0.777,-0.023
4/21/2023 16:05:19.580,0.648,-0.699,-0.109
4/21/2023 16:05:19.590,0.801,-0.645,-0.184
4/21/2023 16:05:19.600,0.977,-0.609,-0.23
4/21/2023 16:05:19.610,1.172,-0.598,-0.266
4/21/2023 16:05:19.620,1.387,-0.586,-0.285
4/21/2023 16:05:19.630,1.625,-0.516,-0.301
4/21/2023 16:05:19.640,1.875,-0.375,-0.285
4/21/2023 16:05:19.650,2.145,-0.145,-0.297
4/21/2023 16:05:19.660,2.422,0.18,-0.313
4/21/2023 16:05:19.670,2.785,0.582,-0.262
4/21/2023 16:05:19.680,3.242,1.082,-0.16
4/21/2023 16:05:19.690,3.598,1.617,-0.199
4/21/2023 16:05:19.700,3.699,2.223,-0.293
4/21/2023 16:05:19.710,3.457,3.074,-0.254
4/21/2023 16:05:19.720,2.996,3.949,-0.039
4/21/2023 16:05:19.730,2.465,4.453,0.313
4/21/2023 16:05:19.740,1.977,4.602,0.516
4/21/2023 16:05:19.750,1.684,4.555,0.598
4/21/2023 16:05:19.760,1.832,4.301,0.293
4/21/2023 16:05:19.770,1.793,3.484,-0.734
4/21/2023 16:05:19.780,1.547,0.59,-1.594
4/21/2023 16:05:19.790,1.867,-3.254,-0.668
4/21/2023 16:05:19.800,2.043,-1.918,0.496
4/21/2023 16:05:19.810,2.184,1.582,1.129
4/21/2023 16:05:19.820,2.426,2.117,0.566
4/21/2023 16:05:19.830,2.258,0.617,-0.355
4/21/2023 16:05:19.840,1.969,0.313,-0.48
4/21/2023 16:05:19.850,1.441,0.793,-0.055
4/21/2023 16:05:19.860,0.82,0.551,0.207
4/21/2023 16:05:19.870,0.43,0.113,0.137
4/21/2023 16:05:19.880,0.363,0.09,-0.07
4/21/2023 16:05:19.890,0.543,0.234,-0.266
4/21/2023 16:05:19.900,0.836,0.355,-0.273
4/21/2023 16:05:19.910,1.074,0.387,-0.363
4/21/2023 16:05:19.920,1.141,0.32,-0.504
4/21/2023 16:05:19.930,1.098,0.32,-0.465
4/21/2023 16:05:19.940,1.055,0.266,-0.309
4/21/2023 16:05:19.950,1.039,0.129,-0.164
4/21/2023 16:05:19.960,1.02,0.027,-0.152
4/21/2023 16:05:19.970,1.035,-0.027,-0.121
4/21/2023 16:05:19.980,1.055,-0.074,-0.105
4/21/2023 16:05:19.990,1.078,-0.066,-0.121
4/21/2023 16:05:20.000,1.055,-0.043,-0.176
4/21/2023 16:05:20.010,1.004,-0.004,-0.246
4/21/2023 16:05:20.020,0.926,0.051,-0.289
4/21/2023 16:05:20.030,0.871,0.063,-0.301
4/21/2023 16:05:20.040,0.867,0.066,-0.285
4/21/2023 16:05:20.050,0.906,0.066,-0.25
4/21/2023 16:05:20.060,0.969,0.078,-0.234
4/21/2023 16:05:20.070,1.027,0.133,-0.25
4/21/2023 16:05:20.080,1.063,0.176,-0.258
4/21/2023 16:05:20.090,1.078,0.164,-0.258
4/21/2023 16:05:20.100,1.066,0.137,-0.242
4/21/2023 16:05:20.110,1.039,0.109,-0.207
4/21/2023 16:05:20.120,1.043,0.078,-0.148
4/21/2023 16:05:20.130,1.027,0.059,-0.164
4/21/2023 16:05:20.140,0.984,0.051,-0.191
4/21/2023 16:05:20.150,0.996,0.055,-0.234
4/21/2023 16:05:20.160,1.098,0.059,-0.281
4/21/2023 16:05:20.170,1.207,0.059,-0.359
4/21/2023 16:05:20.180,1.254,0.102,-0.359
4/21/2023 16:05:20.190,1.316,0.055,-0.332
4/21/2023 16:05:20.200,1.379,-0.016,-0.277
4/21/2023 16:05:20.210,1.473,-0.074,-0.199
4/21/2023 16:05:20.220,1.563,-0.125,-0.109
4/21/2023 16:05:20.230,1.648,-0.184,-0.051
4/21/2023 16:05:20.240,1.727,-0.215,-0.066
4/21/2023 16:05:20.250,1.82,-0.281,-0.219
4/21/2023 16:05:20.260,1.922,-0.324,-0.453
4/21/2023 16:05:20.270,1.984,-0.414,-0.629
4/21/2023 16:05:20.280,2.066,-0.602,-0.738
4/21/2023 16:05:20.290,2.211,-0.977,-0.789
4/21/2023 16:05:20.300,2.211,-1.383,-0.801
4/21/2023 16:05:20.310,1.988,-1.434,-0.641
4/21/2023 16:05:20.320,1.859,-0.883,-0.285
4/21/2023 16:05:20.330,2.148,-0.164,-0.254
4/21/2023 16:05:20.340,2.254,-0.102,-0.52
4/21/2023 16:05:20.350,2.258,-0.117,-0.934
4/21/2023 16:05:20.360,2.414,-0.133,-1.188
4/21/2023 16:05:20.370,1.918,0.211,-0.953
4/21/2023 16:05:20.380,0.895,0.695,-1
4/21/2023 16:05:20.390,0.313,0.715,-1.164
4/21/2023 16:05:20.400,0.578,0.348,-1.031
4/21/2023 16:05:20.410,1.012,-0.402,-0.84
4/21/2023 16:05:20.420,1.176,-1.035,-0.68
4/21/2023 16:05:20.430,1.055,-1.23,-0.395
4/21/2023 16:05:20.440,0.734,-1.078,-0.031
4/21/2023 16:05:20.450,0.316,-0.906,0.145
4/21/2023 16:05:20.460,0,-0.793,0.113
4/21/2023 16:05:20.470,-0.055,-0.617,0.063
4/21/2023 16:05:20.480,0.047,-0.469,-0.023
4/21/2023 16:05:20.490,0.129,-0.461,-0.102
4/21/2023 16:05:20.500,0.176,-0.547,-0.09
4/21/2023 16:05:20.510,0.227,-0.641,-0.086
4/21/2023 16:05:20.520,0.305,-0.66,-0.105
4/21/2023 16:05:20.530,0.434,-0.602,-0.152
4/21/2023 16:05:20.540,0.594,-0.539,-0.238
4/21/2023 16:05:20.550,0.77,-0.52,-0.301
4/21/2023 16:05:20.560,0.953,-0.512,-0.328
4/21/2023 16:05:20.570,1.129,-0.504,-0.352
4/21/2023 16:05:20.580,1.328,-0.473,-0.363
4/21/2023 16:05:20.590,1.574,-0.398,-0.359
4/21/2023 16:05:20.600,1.852,-0.289,-0.34
4/21/2023 16:05:20.610,2.168,-0.129,-0.336
4/21/2023 16:05:20.620,2.496,0.121,-0.371
4/21/2023 16:05:20.630,2.891,0.547,-0.336
4/21/2023 16:05:20.640,3.309,1.203,-0.27
4/21/2023 16:05:20.650,3.594,1.887,-0.258
4/21/2023 16:05:20.660,3.59,2.473,-0.313
4/21/2023 16:05:20.670,3.332,3.145,-0.301
4/21/2023 16:05:20.680,2.949,3.836,-0.184
4/21/2023 16:05:20.690,2.477,4.352,0.02
4/21/2023 16:05:20.700,2.012,4.645,0.176
4/21/2023 16:05:20.710,1.75,4.723,0.301
4/21/2023 16:05:20.720,1.77,4.617,0.395
4/21/2023 16:05:20.730,1.988,3.891,0.031
4/21/2023 16:05:20.740,1.836,1.352,-0.836
4/21/2023 16:05:20.750,1.504,-2.758,-1.047
4/21/2023 16:05:20.760,1.512,-3.629,0.07
4/21/2023 16:05:20.770,1.484,-0.785,0.766
4/21/2023 16:05:20.780,2.172,1.98,0.98
4/21/2023 16:05:20.790,2.508,1.551,0.07
4/21/2023 16:05:20.800,2.43,0.34,-0.426
4/21/2023 16:05:20.810,1.969,0.301,-0.25
4/21/2023 16:05:20.820,1.18,0.422,-0.168
4/21/2023 16:05:20.830,0.633,0.355,-0.211
4/21/2023 16:05:20.840,0.449,0.316,-0.152
4/21/2023 16:05:20.850,0.547,0.332,-0.242
4/21/2023 16:05:20.860,0.719,0.359,-0.484
4/21/2023 16:05:20.870,0.883,0.34,-0.57
4/21/2023 16:05:20.880,0.973,0.355,-0.484
4/21/2023 16:05:20.890,0.988,0.27,-0.34
4/21/2023 16:05:20.900,1.004,0.133,-0.18
4/21/2023 16:05:20.910,1.035,0.086,-0.031
4/21/2023 16:05:20.920,1.02,0.016,-0.016
4/21/2023 16:05:20.930,1.031,-0.016,-0.027
4/21/2023 16:05:20.940,1.07,-0.043,-0.07
4/21/2023 16:05:20.950,1.152,-0.066,-0.133
4/21/2023 16:05:20.960,1.184,-0.012,-0.223
4/21/2023 16:05:20.970,1.082,0.09,-0.266
4/21/2023 16:05:20.980,0.945,0.145,-0.266
4/21/2023 16:05:20.990,0.898,0.148,-0.211
4/21/2023 16:05:21.000,0.926,0.133,-0.184
4/21/2023 16:05:21.010,0.996,0.156,-0.191
4/21/2023 16:05:21.020,1.07,0.227,-0.254
4/21/2023 16:05:21.030,1.141,0.242,-0.273
4/21/2023 16:05:21.040,1.195,0.207,-0.289
4/21/2023 16:05:21.050,1.215,0.176,-0.27
4/21/2023 16:05:21.060,1.195,0.105,-0.18
4/21/2023 16:05:21.070,1.168,0.051,-0.105
4/21/2023 16:05:21.080,1.133,0.023,-0.082
4/21/2023 16:05:21.090,1.082,0.031,-0.129
4/21/2023 16:05:21.100,1.094,0.043,-0.176
4/21/2023 16:05:21.110,1.18,0.047,-0.242
4/21/2023 16:05:21.120,1.246,0.027,-0.277
4/21/2023 16:05:21.130,1.305,-0.02,-0.25
4/21/2023 16:05:21.140,1.398,-0.082,-0.246
4/21/2023 16:05:21.150,1.492,-0.078,-0.336
4/21/2023 16:05:21.160,1.535,-0.109,-0.359
4/21/2023 16:05:21.170,1.582,-0.234,-0.238
4/21/2023 16:05:21.180,1.672,-0.328,-0.184
4/21/2023 16:05:21.190,1.75,-0.461,-0.273
4/21/2023 16:05:21.200,1.813,-0.609,-0.41
4/21/2023 16:05:21.210,1.93,-0.848,-0.551
4/21/2023 16:05:21.220,2.09,-1.184,-0.648
4/21/2023 16:05:21.230,2.102,-1.348,-0.75
4/21/2023 16:05:21.240,2.117,-1.039,-0.543
4/21/2023 16:05:21.250,2.461,-0.336,-0.297
4/21/2023 16:05:21.260,2.672,-0.172,-0.449
4/21/2023 16:05:21.270,2.707,-0.176,-0.758
4/21/2023 16:05:21.280,2.723,-0.02,-1.328
4/21/2023 16:05:21.290,2.168,0.176,-1.125
4/21/2023 16:05:21.300,1.137,0.691,-0.957
4/21/2023 16:05:21.310,0.488,0.766,-1.133
4/21/2023 16:05:21.320,0.656,0.473,-1.113
4/21/2023 16:05:21.330,1.059,-0.219,-0.945
4/21/2023 16:05:21.340,1.211,-0.879,-0.781
4/21/2023 16:05:21.350,1.031,-1.117,-0.473
4/21/2023 16:05:21.360,0.668,-1.016,-0.109
4/21/2023 16:05:21.370,0.234,-0.898,0.109
4/21/2023 16:05:21.380,-0.07,-0.836,0.145
4/21/2023 16:05:21.390,-0.121,-0.758,0.098
4/21/2023 16:05:21.400,-0.008,-0.668,0.055
4/21/2023 16:05:21.410,0.113,-0.621,0.035
4/21/2023 16:05:21.420,0.184,-0.699,0.02
4/21/2023 16:05:21.430,0.262,-0.844,0.047
4/21/2023 16:05:21.440,0.395,-0.938,0.043
4/21/2023 16:05:21.450,0.566,-0.898,0.012
4/21/2023 16:05:21.460,0.73,-0.77,-0.035
4/21/2023 16:05:21.470,0.844,-0.656,-0.086
4/21/2023 16:05:21.480,0.953,-0.602,-0.086
4/21/2023 16:05:21.490,1.082,-0.605,-0.074
4/21/2023 16:05:21.500,1.234,-0.621,-0.086
4/21/2023 16:05:21.510,1.445,-0.543,-0.086
4/21/2023 16:05:21.520,1.691,-0.41,-0.102
4/21/2023 16:05:21.530,1.961,-0.219,-0.16
4/21/2023 16:05:21.540,2.254,0.066,-0.227
4/21/2023 16:05:21.550,2.652,0.453,-0.242
4/21/2023 16:05:21.560,3.223,1.02,-0.184
4/21/2023 16:05:21.570,3.746,1.676,-0.094
4/21/2023 16:05:21.580,3.762,2.254,-0.125
4/21/2023 16:05:21.590,3.414,2.938,-0.176
4/21/2023 16:05:21.600,2.953,3.703,-0.125
4/21/2023 16:05:21.610,2.418,4.277,0.043
4/21/2023 16:05:21.620,1.949,4.551,0.238
4/21/2023 16:05:21.630,1.695,4.578,0.246
4/21/2023 16:05:21.640,1.852,4.246,0.016
4/21/2023 16:05:21.650,1.754,3.512,-0.934
4/21/2023 16:05:21.660,1.582,0.457,-1.672
4/21/2023 16:05:21.670,2.211,-3.148,-0.348
4/21/2023 16:05:21.680,2.457,-1.148,0.641
4/21/2023 16:05:21.690,2.633,2.195,0.977
4/21/2023 16:05:21.700,2.672,1.816,0.125
4/21/2023 16:05:21.710,2.305,0.391,-0.637
4/21/2023 16:05:21.720,1.855,0.355,-0.43
4/21/2023 16:05:21.730,1.012,0.605,0.008
4/21/2023 16:05:21.740,0.188,0.371,0.051
4/21/2023 16:05:21.750,-0.035,0.141,0.105
4/21/2023 16:05:21.760,0.273,0.203,0.039
4/21/2023 16:05:21.770,0.652,0.297,-0.164
4/21/2023 16:05:21.780,0.941,0.391,-0.352
4/21/2023 16:05:21.790,1.137,0.445,-0.469
4/21/2023 16:05:21.800,1.23,0.422,-0.504
4/21/2023 16:05:21.810,1.238,0.316,-0.402
4/21/2023 16:05:21.820,1.219,0.172,-0.227
4/21/2023 16:05:21.830,1.195,0.055,-0.109
4/21/2023 16:05:21.840,1.152,-0.02,-0.121
4/21/2023 16:05:21.850,1.07,-0.102,-0.121
4/21/2023 16:05:21.860,1.008,-0.152,-0.117
4/21/2023 16:05:21.870,0.973,-0.137,-0.145
4/21/2023 16:05:21.880,0.953,-0.086,-0.184
4/21/2023 16:05:21.890,0.906,-0.016,-0.242
4/21/2023 16:05:21.900,0.859,0.07,-0.238
4/21/2023 16:05:21.910,0.863,0.121,-0.195
4/21/2023 16:05:21.920,0.918,0.113,-0.156
4/21/2023 16:05:21.930,0.992,0.094,-0.137
4/21/2023 16:05:21.940,1.066,0.121,-0.172
4/21/2023 16:05:21.950,1.102,0.199,-0.23
4/21/2023 16:05:21.960,1.109,0.227,-0.25
4/21/2023 16:05:21.970,1.117,0.191,-0.223
4/21/2023 16:05:21.980,1.113,0.188,-0.215
4/21/2023 16:05:21.990,1.109,0.191,-0.168
4/21/2023 16:05:22.000,1.117,0.164,-0.086
4/21/2023 16:05:22.010,1.133,0.082,0
4/21/2023 16:05:22.020,1.152,0.02,0.004
4/21/2023 16:05:22.030,1.188,0.031,-0.051
4/21/2023 16:05:22.040,1.25,0.066,-0.152
4/21/2023 16:05:22.050,1.285,0.094,-0.219
4/21/2023 16:05:22.060,1.348,0.043,-0.195
4/21/2023 16:05:22.070,1.457,0.023,-0.172
4/21/2023 16:05:22.080,1.551,-0.039,-0.18
4/21/2023 16:05:22.090,1.645,-0.129,-0.133
4/21/2023 16:05:22.100,1.715,-0.191,-0.078
4/21/2023 16:05:22.110,1.77,-0.238,-0.074
4/21/2023 16:05:22.120,1.84,-0.367,-0.18
4/21/2023 16:05:22.130,1.906,-0.516,-0.352
4/21/2023 16:05:22.140,1.992,-0.734,-0.559
4/21/2023 16:05:22.150,2.102,-0.996,-0.766
4/21/2023 16:05:22.160,2.156,-1.195,-0.797
4/21/2023 16:05:22.170,1.98,-1.141,-0.816
4/21/2023 16:05:22.180,1.957,-0.559,-0.641
4/21/2023 16:05:22.190,2.285,-0.066,-0.535
4/21/2023 16:05:22.200,2.395,-0.176,-0.824
4/21/2023 16:05:22.210,2.469,-0.336,-1.09
4/21/2023 16:05:22.220,2.484,-0.402,-1.156
4/21/2023 16:05:22.230,1.566,0.105,-0.879
4/21/2023 16:05:22.240,0.508,0.688,-0.965
4/21/2023 16:05:22.250,0.172,0.676,-1.109
4/21/2023 16:05:22.260,0.594,0.191,-0.875
4/21/2023 16:05:22.270,0.953,-0.516,-0.73
4/21/2023 16:05:22.280,0.969,-0.953,-0.527
4/21/2023 16:05:22.290,0.758,-0.98,-0.234
4/21/2023 16:05:22.300,0.465,-0.813,-0.004
4/21/2023 16:05:22.310,0.188,-0.711,0.039
4/21/2023 16:05:22.320,0.055,-0.637,-0.043
4/21/2023 16:05:22.330,0.109,-0.504,-0.102
4/21/2023 16:05:22.340,0.211,-0.449,-0.125
4/21/2023 16:05:22.350,0.297,-0.504,-0.063
4/21/2023 16:05:22.360,0.352,-0.676,0.016
4/21/2023 16:05:22.370,0.43,-0.844,0.078
4/21/2023 16:05:22.380,0.563,-0.914,0.07
4/21/2023 16:05:22.390,0.742,-0.855,0.008
4/21/2023 16:05:22.400,0.934,-0.758,-0.055
4/21/2023 16:05:22.410,1.113,-0.672,-0.133
4/21/2023 16:05:22.420,1.27,-0.621,-0.168
4/21/2023 16:05:22.430,1.441,-0.617,-0.176
4/21/2023 16:05:22.440,1.656,-0.551,-0.207
4/21/2023 16:05:22.450,1.91,-0.375,-0.234
4/21/2023 16:05:22.460,2.195,-0.133,-0.234
4/21/2023 16:05:22.470,2.469,0.195,-0.23
4/21/2023 16:05:22.480,2.77,0.637,-0.184
4/21/2023 16:05:22.490,3.141,1.195,-0.094
4/21/2023 16:05:22.500,3.441,1.773,-0.105
4/21/2023 16:05:22.510,3.527,2.391,-0.207
4/21/2023 16:05:22.520,3.281,3.18,-0.234
4/21/2023 16:05:22.530,2.844,4,-0.125
4/21/2023 16:05:22.540,2.352,4.547,0.098
4/21/2023 16:05:22.550,1.902,4.75,0.293
4/21/2023 16:05:22.560,1.652,4.699,0.379
4/21/2023 16:05:22.570,1.68,4.523,0.348
4/21/2023 16:05:22.580,1.883,3.574,-0.285
4/21/2023 16:05:22.590,1.621,0.73,-1.438
4/21/2023 16:05:22.600,1.535,-3.68,-0.938
4/21/2023 16:05:22.610,1.688,-3.543,0.508
4/21/2023 16:05:22.620,1.98,0.414,1.336
4/21/2023 16:05:22.630,2.484,2.742,0.609
4/21/2023 16:05:22.640,2.582,1.574,-0.695
4/21/2023 16:05:22.650,2.438,0.941,-0.816
4/21/2023 16:05:22.660,1.766,0.836,-0.246
4/21/2023 16:05:22.670,0.867,0.438,0.336
4/21/2023 16:05:22.680,0.258,0.207,0.289
4/21/2023 16:05:22.690,0.137,0.184,-0.277
4/21/2023 16:05:22.700,0.461,0.324,-0.395
4/21/2023 16:05:22.710,0.93,0.457,-0.273
4/21/2023 16:05:22.720,1.102,0.441,-0.453
4/21/2023 16:05:22.730,1.113,0.34,-0.422
4/21/2023 16:05:22.740,1.105,0.262,-0.203
4/21/2023 16:05:22.750,1.086,0.191,-0.035
4/21/2023 16:05:22.760,1.043,0.105,-0.035
4/21/2023 16:05:22.770,1.039,0.004,-0.012
4/21/2023 16:05:22.780,1.105,-0.063,-0.066
4/21/2023 16:05:22.790,1.191,-0.039,-0.18
4/21/2023 16:05:22.800,1.215,0,-0.23
4/21/2023 16:05:22.810,1.109,0.027,-0.227
4/21/2023 16:05:22.820,0.945,0.09,-0.238
4/21/2023 16:05:22.830,0.82,0.148,-0.281
4/21/2023 16:05:22.840,0.781,0.133,-0.289
4/21/2023 16:05:22.850,0.836,0.109,-0.258
4/21/2023 16:05:22.860,0.941,0.145,-0.215
4/21/2023 16:05:22.870,1.031,0.184,-0.234
4/21/2023 16:05:22.880,1.102,0.199,-0.254
4/21/2023 16:05:22.890,1.164,0.184,-0.238
4/21/2023 16:05:22.900,1.18,0.172,-0.23
4/21/2023 16:05:22.910,1.168,0.133,-0.211
4/21/2023 16:05:22.920,1.113,0.117,-0.152
4/21/2023 16:05:22.930,1.07,0.027,-0.063
4/21/2023 16:05:22.940,1.02,-0.059,-0.074
4/21/2023 16:05:22.950,1.035,0.016,-0.156
4/21/2023 16:05:22.960,1.129,0.063,-0.223
4/21/2023 16:05:22.970,1.199,0.02,-0.223
4/21/2023 16:05:22.980,1.297,-0.012,-0.207
4/21/2023 16:05:22.990,1.406,-0.012,-0.25
4/21/2023 16:05:23.000,1.5,0.008,-0.313
4/21/2023 16:05:23.010,1.574,0.012,-0.34
4/21/2023 16:05:23.020,1.613,-0.082,-0.238
4/21/2023 16:05:23.030,1.676,-0.129,-0.152
4/21/2023 16:05:23.040,1.746,-0.211,-0.23
4/21/2023 16:05:23.050,1.836,-0.313,-0.332
4/21/2023 16:05:23.060,1.98,-0.469,-0.422
4/21/2023 16:05:23.070,2.164,-0.715,-0.563
4/21/2023 16:05:23.080,2.285,-1.008,-0.77
4/21/2023 16:05:23.090,2.352,-1.195,-0.723
4/21/2023 16:05:23.100,2.121,-1.203,-0.664
4/21/2023 16:05:23.110,2.051,-0.613,-0.387
4/21/2023 16:05:23.120,2.332,-0.23,-0.406
4/21/2023 16:05:23.130,2.375,-0.078,-0.41
4/21/2023 16:05:23.140,2.441,-0.027,-0.957
4/21/2023 16:05:23.150,2.074,-0.008,-0.828
4/21/2023 16:05:23.160,1.082,0.5,-0.848
4/21/2023 16:05:23.170,0.289,0.832,-1.129
4/21/2023 16:05:23.180,0.352,0.676,-1.109
4/21/2023 16:05:23.190,0.734,0.078,-0.824
4/21/2023 16:05:23.200,0.895,-0.57,-0.621
4/21/2023 16:05:23.210,0.797,-0.898,-0.387
4/21/2023 16:05:23.220,0.57,-0.996,-0.098
4/21/2023 16:05:23.230,0.336,-1.004,0.113
4/21/2023 16:05:23.240,0.141,-0.941,0.152
4/21/2023 16:05:23.250,0.063,-0.754,0.113
4/21/2023 16:05:23.260,0.109,-0.578,0.066
4/21/2023 16:05:23.270,0.199,-0.547,0.047
4/21/2023 16:05:23.280,0.254,-0.641,0.102
4/21/2023 16:05:23.290,0.273,-0.816,0.141
4/21/2023 16:05:23.300,0.316,-0.957,0.141
4/21/2023 16:05:23.310,0.441,-0.961,0.082
4/21/2023 16:05:23.320,0.621,-0.848,-0.023
4/21/2023 16:05:23.330,0.805,-0.727,-0.121
4/21/2023 16:05:23.340,0.973,-0.629,-0.203
4/21/2023 16:05:23.350,1.141,-0.551,-0.262
4/21/2023 16:05:23.360,1.324,-0.512,-0.27
4/21/2023 16:05:23.370,1.566,-0.438,-0.281
4/21/2023 16:05:23.380,1.84,-0.27,-0.254
4/21/2023 16:05:23.390,2.113,-0.051,-0.227
4/21/2023 16:05:23.400,2.34,0.215,-0.219
4/21/2023 16:05:23.410,2.582,0.57,-0.195
4/21/2023 16:05:23.420,2.934,1.074,-0.137
4/21/2023 16:05:23.430,3.324,1.625,-0.117
4/21/2023 16:05:23.440,3.512,2.156,-0.195
4/21/2023 16:05:23.450,3.32,2.789,-0.25
4/21/2023 16:05:23.460,2.883,3.52,-0.207
4/21/2023 16:05:23.470,2.359,4.105,-0.035
4/21/2023 16:05:23.480,1.902,4.383,0.203
4/21/2023 16:05:23.490,1.66,4.359,0.313
4/21/2023 16:05:23.500,1.66,4.191,0.281
4/21/2023 16:05:23.510,1.945,3.375,-0.07
4/21/2023 16:05:23.520,1.762,1.152,-0.926
4/21/2023 16:05:23.530,1.582,-2.75,-0.871
4/21/2023 16:05:23.540,1.797,-3.227,0.457
4/21/2023 16:05:23.550,1.914,0.086,0.996
4/21/2023 16:05:23.560,2.449,2.457,0.574
4/21/2023 16:05:23.570,2.652,1.504,-0.305
4/21/2023 16:05:23.580,2.438,0.523,-0.48
4/21/2023 16:05:23.590,1.762,0.367,-0.25
4/21/2023 16:05:23.600,0.836,0.289,0.012
4/21/2023 16:05:23.610,0.23,0.258,-0.023
4/21/2023 16:05:23.620,0.129,0.215,-0.285
4/21/2023 16:05:23.630,0.383,0.258,-0.43
4/21/2023 16:05:23.640,0.754,0.359,-0.402
4/21/2023 16:05:23.650,0.984,0.406,-0.422
4/21/2023 16:05:23.660,1.078,0.387,-0.406
4/21/2023 16:05:23.670,1.105,0.34,-0.414
4/21/2023 16:05:23.680,1.133,0.277,-0.324
4/21/2023 16:05:23.690,1.105,0.152,-0.172
4/21/2023 16:05:23.700,1.047,0.012,-0.063
4/21/2023 16:05:23.710,0.996,-0.113,-0.043
4/21/2023 16:05:23.720,1.031,-0.148,-0.055
4/21/2023 16:05:23.730,1.086,-0.172,-0.102
4/21/2023 16:05:23.740,1.094,-0.156,-0.133
4/21/2023 16:05:23.750,1.047,-0.055,-0.156
4/21/2023 16:05:23.760,0.961,0.039,-0.203
4/21/2023 16:05:23.770,0.887,0.063,-0.266
4/21/2023 16:05:23.780,0.855,0.074,-0.293
4/21/2023 16:05:23.790,0.867,0.102,-0.266
4/21/2023 16:05:23.800,0.906,0.145,-0.223
4/21/2023 16:05:23.810,0.973,0.18,-0.18
4/21/2023 16:05:23.820,1.047,0.203,-0.164
4/21/2023 16:05:23.830,1.082,0.18,-0.207
4/21/2023 16:05:23.840,1.063,0.148,-0.266
4/21/2023 16:05:23.850,1.039,0.117,-0.258
4/21/2023 16:05:23.860,1.043,0.113,-0.207
4/21/2023 16:05:23.870,1.051,0.113,-0.125
4/21/2023 16:05:23.880,1.055,0.066,-0.07
4/21/2023 16:05:23.890,1.051,0.023,-0.066
4/21/2023 16:05:23.900,1.113,0.055,-0.102
4/21/2023 16:05:23.910,1.199,0.109,-0.145
4/21/2023 16:05:23.920,1.254,0.129,-0.133
4/21/2023 16:05:23.930,1.316,0.113,-0.117
4/21/2023 16:05:23.940,1.395,0.066,-0.199
4/21/2023 16:05:23.950,1.473,0.047,-0.219
4/21/2023 16:05:23.960,1.539,0.016,-0.164
4/21/2023 16:05:23.970,1.598,0.004,-0.113
4/21/2023 16:05:23.980,1.672,-0.043,-0.152
4/21/2023 16:05:23.990,1.699,-0.109,-0.164
4/21/2023 16:05:24.000,1.77,-0.152,-0.23
4/21/2023 16:05:24.010,1.914,-0.25,-0.363
4/21/2023 16:05:24.020,2.086,-0.445,-0.535
4/21/2023 16:05:24.030,2.27,-0.684,-0.688
4/21/2023 16:05:24.040,2.359,-0.934,-0.809
4/21/2023 16:05:24.050,2.387,-1.168,-0.738
4/21/2023 16:05:24.060,2.125,-1.254,-0.793
4/21/2023 16:05:24.070,1.805,-0.777,-0.645
4/21/2023 16:05:24.080,1.988,-0.297,-0.461
4/21/2023 16:05:24.090,2.141,-0.16,-0.637
4/21/2023 16:05:24.100,2.18,-0.219,-0.855
4/21/2023 16:05:24.110,2.32,-0.469,-0.832
4/21/2023 16:05:24.120,1.52,-0.047,-0.789
4/21/2023 16:05:24.130,0.469,0.598,-0.938
4/21/2023 16:05:24.140,-0.004,0.605,-1.023
4/21/2023 16:05:24.150,0.313,0.129,-0.855
4/21/2023 16:05:24.160,0.723,-0.602,-0.75
4/21/2023 16:05:24.170,0.832,-1.063,-0.582
4/21/2023 16:05:24.180,0.707,-1.164,-0.266
4/21/2023 16:05:24.190,0.465,-1.031,0.07
4/21/2023 16:05:24.200,0.188,-0.891,0.172
4/21/2023 16:05:24.210,0.023,-0.742,0.07
4/21/2023 16:05:24.220,0.07,-0.582,-0.02
4/21/2023 16:05:24.230,0.203,-0.52,-0.047
4/21/2023 16:05:24.240,0.32,-0.574,0.008
4/21/2023 16:05:24.250,0.387,-0.734,0.066
4/21/2023 16:05:24.260,0.441,-0.875,0.09
4/21/2023 16:05:24.270,0.551,-0.891,0.035
4/21/2023 16:05:24.280,0.734,-0.781,-0.059
4/21/2023 16:05:24.290,0.938,-0.633,-0.145
4/21/2023 16:05:24.300,1.113,-0.516,-0.211
4/21/2023 16:05:24.310,1.27,-0.488,-0.242
4/21/2023 16:05:24.320,1.48,-0.52,-0.277
4/21/2023 16:05:24.330,1.762,-0.469,-0.281
4/21/2023 16:05:24.340,2.082,-0.324,-0.27
4/21/2023 16:05:24.350,2.383,-0.078,-0.242
4/21/2023 16:05:24.360,2.648,0.305,-0.219
4/21/2023 16:05:24.370,2.934,0.844,-0.129
4/21/2023 16:05:24.380,3.23,1.383,0.023
4/21/2023 16:05:24.390,3.363,1.84,0.035
4/21/2023 16:05:24.400,3.32,2.391,-0.012
4/21/2023 16:05:24.410,3.09,3.16,0.039
4/21/2023 16:05:24.420,2.66,3.887,0.168
4/21/2023 16:05:24.430,2.168,4.34,0.316
4/21/2023 16:05:24.440,1.797,4.469,0.398
4/21/2023 16:05:24.450,1.82,4.398,0.355
4/21/2023 16:05:24.460,1.891,3.875,-0.246
4/21/2023 16:05:24.470,1.578,2.262,-1.176
4/21/2023 16:05:24.480,1.594,-1.902,-1.266
4/21/2023 16:05:24.490,2.109,-2.855,0.129
4/21/2023 16:05:24.500,2.297,0.5,0.805
4/21/2023 16:05:24.510,2.773,2.293,0.531
4/21/2023 16:05:24.520,2.719,1.027,-0.242
4/21/2023 16:05:24.530,2.223,0.234,-0.34
4/21/2023 16:05:24.540,1.457,0.379,-0.086
4/21/2023 16:05:24.550,0.516,0.438,-0.027
4/21/2023 16:05:24.560,0.063,0.367,-0.012
4/21/2023 16:05:24.570,0.195,0.168,0.043
4/21/2023 16:05:24.580,0.52,0.188,-0.055
4/21/2023 16:05:24.590,0.793,0.375,-0.27
4/21/2023 16:05:24.600,1.004,0.387,-0.469
4/21/2023 16:05:24.610,1.18,0.371,-0.539
4/21/2023 16:05:24.620,1.23,0.371,-0.508
4/21/2023 16:05:24.630,1.18,0.203,-0.34
4/21/2023 16:05:24.640,1.094,0.02,-0.219
4/21/2023 16:05:24.650,1.055,-0.043,-0.184
4/21/2023 16:05:24.660,1.047,-0.078,-0.16
4/21/2023 16:05:24.670,1.035,-0.121,-0.164
4/21/2023 16:05:24.680,1.035,-0.129,-0.168
4/21/2023 16:05:24.690,1.012,-0.117,-0.199
4/21/2023 16:05:24.700,0.961,-0.047,-0.242
4/21/2023 16:05:24.710,0.906,0.047,-0.277
4/21/2023 16:05:24.720,0.883,0.102,-0.262
4/21/2023 16:05:24.730,0.898,0.086,-0.246
4/21/2023 16:05:24.740,0.945,0.078,-0.203
4/21/2023 16:05:24.750,0.988,0.109,-0.156
4/21/2023 16:05:24.760,1.043,0.16,-0.141
4/21/2023 16:05:24.770,1.086,0.191,-0.18
4/21/2023 16:05:24.780,1.074,0.207,-0.258
4/21/2023 16:05:24.790,1.051,0.176,-0.289
4/21/2023 16:05:24.800,1.066,0.16,-0.262
4/21/2023 16:05:24.810,1.082,0.18,-0.18
4/21/2023 16:05:24.820,1.07,0.125,-0.09
4/21/2023 16:05:24.830,1.059,0.043,-0.023
4/21/2023 16:05:24.840,1.086,0.031,-0.02
4/21/2023 16:05:24.850,1.125,0.063,-0.105
4/21/2023 16:05:24.860,1.172,0.121,-0.164
4/21/2023 16:05:24.870,1.258,0.141,-0.16
4/21/2023 16:05:24.880,1.359,0.074,-0.258
4/21/2023 16:05:24.890,1.398,0.074,-0.281
4/21/2023 16:05:24.900,1.453,0.039,-0.145
4/21/2023 16:05:24.910,1.523,-0.035,-0.055
4/21/2023 16:05:24.920,1.555,-0.094,-0.07
4/21/2023 16:05:24.930,1.578,-0.156,-0.055
4/21/2023 16:05:24.940,1.637,-0.195,-0.129
4/21/2023 16:05:24.950,1.691,-0.234,-0.297
4/21/2023 16:05:24.960,1.801,-0.375,-0.473
4/21/2023 16:05:24.970,1.969,-0.625,-0.664
4/21/2023 16:05:24.980,2.105,-0.91,-0.867
4/21/2023 16:05:24.990,2.105,-1.109,-0.965
4/21/2023 16:05:25.000,1.977,-1.156,-0.844
4/21/2023 16:05:25.010,2.004,-0.785,-0.547
4/21/2023 16:05:25.020,2.309,-0.125,-0.477
4/21/2023 16:05:25.030,2.41,-0.043,-0.664
4/21/2023 16:05:25.040,2.324,-0.148,-0.973
4/21/2023 16:05:25.050,2.43,-0.262,-1.262
4/21/2023 16:05:25.060,1.898,-0.031,-1.059
4/21/2023 16:05:25.070,0.898,0.488,-1.066
4/21/2023 16:05:25.080,0.355,0.594,-1.191
4/21/2023 16:05:25.090,0.574,0.34,-0.906
4/21/2023 16:05:25.100,0.934,-0.301,-0.648
4/21/2023 16:05:25.110,1.078,-0.922,-0.566
4/21/2023 16:05:25.120,0.973,-1.172,-0.398
4/21/2023 16:05:25.130,0.727,-1.137,-0.133
4/21/2023 16:05:25.140,0.418,-0.98,0.074
4/21/2023 16:05:25.150,0.129,-0.828,0.07
4/21/2023 16:05:25.160,-0.02,-0.641,-0.047
4/21/2023 16:05:25.170,0.012,-0.457,-0.148
4/21/2023 16:05:25.180,0.086,-0.391,-0.227
4/21/2023 16:05:25.190,0.156,-0.492,-0.223
4/21/2023 16:05:25.200,0.219,-0.688,-0.191
4/21/2023 16:05:25.210,0.328,-0.801,-0.18
4/21/2023 16:05:25.220,0.504,-0.766,-0.223
4/21/2023 16:05:25.230,0.711,-0.617,-0.273
4/21/2023 16:05:25.240,0.898,-0.461,-0.348
4/21/2023 16:05:25.250,1.051,-0.398,-0.398
4/21/2023 16:05:25.260,1.203,-0.43,-0.406
4/21/2023 16:05:25.270,1.391,-0.457,-0.387
4/21/2023 16:05:25.280,1.637,-0.391,-0.344
4/21/2023 16:05:25.290,1.938,-0.242,-0.316
4/21/2023 16:05:25.300,2.25,-0.012,-0.367
4/21/2023 16:05:25.310,2.582,0.324,-0.422
4/21/2023 16:05:25.320,3.047,0.805,-0.375
4/21/2023 16:05:25.330,3.559,1.473,-0.297
4/21/2023 16:05:25.340,3.77,2.117,-0.273
4/21/2023 16:05:25.350,3.531,2.727,-0.258
4/21/2023 16:05:25.360,3.141,3.426,-0.121
4/21/2023 16:05:25.370,2.648,4.035,0.156
4/21/2023 16:05:25.380,2.121,4.379,0.395
4/21/2023 16:05:25.390,1.73,4.484,0.563
4/21/2023 16:05:25.400,1.629,4.418,0.734
4/21/2023 16:05:25.410,1.93,4.145,0.707
4/21/2023 16:05:25.420,2.023,2.574,-0.172
4/21/2023 16:05:25.430,1.574,-0.973,-1.363
4/21/2023 16:05:25.440,1.781,-4.176,-0.41
4/21/2023 16:05:25.450,1.922,-1.848,0.629
4/21/2023 16:05:25.460,2.375,2.422,1.16
4/21/2023 16:05:25.470,2.848,2.449,0.168
4/21/2023 16:05:25.480,2.926,0.777,-0.438
4/21/2023 16:05:25.490,2.426,0.383,-0.227
4/21/2023 16:05:25.500,1.352,0.297,-0.074
4/21/2023 16:05:25.510,0.355,0.27,-0.215
4/21/2023 16:05:25.520,-0.043,0.383,-0.238
4/21/2023 16:05:25.530,0.234,0.363,-0.293
4/21/2023 16:05:25.540,0.672,0.293,-0.391
4/21/2023 16:05:25.550,0.93,0.328,-0.48
4/21/2023 16:05:25.560,1,0.328,-0.52
4/21/2023 16:05:25.570,1.023,0.234,-0.328
4/21/2023 16:05:25.580,1.063,0.148,-0.109
4/21/2023 16:05:25.590,1.086,0,-0.082
4/21/2023 16:05:25.600,1.094,-0.109,-0.043
4/21/2023 16:05:25.610,1.148,-0.094,-0.059
4/21/2023 16:05:25.620,1.18,-0.059,-0.211
4/21/2023 16:05:25.630,1.168,-0.047,-0.273
4/21/2023 16:05:25.640,1.051,-0.012,-0.262
4/21/2023 16:05:25.650,0.898,0.051,-0.254
4/21/2023 16:05:25.660,0.797,0.105,-0.234
4/21/2023 16:05:25.670,0.789,0.105,-0.188
4/21/2023 16:05:25.680,0.852,0.102,-0.152
4/21/2023 16:05:25.690,0.938,0.148,-0.141
4/21/2023 16:05:25.700,1.016,0.16,-0.18
4/21/2023 16:05:25.710,1.047,0.203,-0.215
4/21/2023 16:05:25.720,1.074,0.203,-0.219
4/21/2023 16:05:25.730,1.105,0.152,-0.219
4/21/2023 16:05:25.740,1.113,0.152,-0.207
4/21/2023 16:05:25.750,1.098,0.137,-0.137
4/21/2023 16:05:25.760,1.109,0.07,-0.055
4/21/2023 16:05:25.770,1.129,0.023,-0.074
4/21/2023 16:05:25.780,1.098,-0.004,-0.164
4/21/2023 16:05:25.790,1.105,0.094,-0.258
4/21/2023 16:05:25.800,1.168,0.156,-0.273
4/21/2023 16:05:25.810,1.246,0.152,-0.301
4/21/2023 16:05:25.820,1.289,0.105,-0.293
4/21/2023 16:05:25.830,1.391,0.02,-0.227
4/21/2023 16:05:25.840,1.516,-0.008,-0.184
4/21/2023 16:05:25.850,1.574,-0.008,-0.234
4/21/2023 16:05:25.860,1.582,-0.102,-0.16
4/21/2023 16:05:25.870,1.66,-0.156,-0.066
4/21/2023 16:05:25.880,1.73,-0.211,-0.195
4/21/2023 16:05:25.890,1.797,-0.324,-0.418
4/21/2023 16:05:25.900,1.93,-0.457,-0.574
4/21/2023 16:05:25.910,2.102,-0.676,-0.727
4/21/2023 16:05:25.920,2.203,-0.953,-0.891
4/21/2023 16:05:25.930,2.188,-1.078,-0.793
4/21/2023 16:05:25.940,1.973,-1.066,-0.695
4/21/2023 16:05:25.950,1.895,-0.594,-0.449
4/21/2023 16:05:25.960,2.18,-0.152,-0.402
4/21/2023 16:05:25.970,2.25,-0.113,-0.563
4/21/2023 16:05:25.980,2.309,-0.121,-1
4/21/2023 16:05:25.990,2.246,-0.16,-0.988
4/21/2023 16:05:26.000,1.344,0.293,-0.906
4/21/2023 16:05:26.010,0.445,0.668,-1.133
4/21/2023 16:05:26.020,0.242,0.648,-1.207
4/21/2023 16:05:26.030,0.648,0.23,-0.969
4/21/2023 16:05:26.040,0.938,-0.473,-0.758
4/21/2023 16:05:26.050,0.93,-0.934,-0.488
4/21/2023 16:05:26.060,0.707,-1.035,-0.203
4/21/2023 16:05:26.070,0.453,-0.926,0.066
4/21/2023 16:05:26.080,0.223,-0.902,0.172
4/21/2023 16:05:26.090,0.141,-0.867,0.16
4/21/2023 16:05:26.100,0.195,-0.68,0.117
4/21/2023 16:05:26.110,0.246,-0.543,0.035
4/21/2023 16:05:26.120,0.27,-0.551,0.004
4/21/2023 16:05:26.130,0.289,-0.66,0
4/21/2023 16:05:26.140,0.34,-0.805,0.016
4/21/2023 16:05:26.150,0.445,-0.859,-0.02
4/21/2023 16:05:26.160,0.613,-0.781,-0.078
4/21/2023 16:05:26.170,0.789,-0.664,-0.152
4/21/2023 16:05:26.180,0.953,-0.582,-0.23
4/21/2023 16:05:26.190,1.109,-0.52,-0.27
4/21/2023 16:05:26.200,1.262,-0.496,-0.273
4/21/2023 16:05:26.210,1.438,-0.484,-0.301
4/21/2023 16:05:26.220,1.676,-0.375,-0.297
4/21/2023 16:05:26.230,1.938,-0.18,-0.301
4/21/2023 16:05:26.240,2.199,0.074,-0.34
4/21/2023 16:05:26.250,2.477,0.398,-0.371
4/21/2023 16:05:26.260,2.855,0.82,-0.309
4/21/2023 16:05:26.270,3.254,1.332,-0.195
4/21/2023 16:05:26.280,3.426,1.852,-0.172
4/21/2023 16:05:26.290,3.301,2.406,-0.18
4/21/2023 16:05:26.300,3.012,3.113,-0.102
4/21/2023 16:05:26.310,2.652,3.754,0.145
4/21/2023 16:05:26.320,2.227,4.109,0.414
4/21/2023 16:05:26.330,1.859,4.199,0.535
4/21/2023 16:05:26.340,1.695,4.168,0.563
4/21/2023 16:05:26.350,1.895,3.793,0.305
4/21/2023 16:05:26.360,1.91,2.605,-0.488
4/21/2023 16:05:26.370,1.66,-0.82,-1.16
4/21/2023 16:05:26.380,2.023,-3.43,-0.133
4/21/2023 16:05:26.390,2.117,-0.977,0.559
4/21/2023 16:05:26.400,2.324,2.211,0.922
4/21/2023 16:05:26.410,2.672,1.969,0.375
4/21/2023 16:05:26.420,2.555,0.602,-0.246
4/21/2023 16:05:26.430,2.164,0.355,-0.141
4/21/2023 16:05:26.440,1.227,0.238,0
4/21/2023 16:05:26.450,0.258,0.105,-0.156
4/21/2023 16:05:26.460,-0.168,0.277,-0.301
4/21/2023 16:05:26.470,0.141,0.359,-0.18
4/21/2023 16:05:26.480,0.688,0.32,-0.273
4/21/2023 16:05:26.490,0.988,0.367,-0.504
4/21/2023 16:05:26.500,1.059,0.445,-0.617
4/21/2023 16:05:26.510,1.078,0.391,-0.559
4/21/2023 16:05:26.520,1.102,0.25,-0.336
4/21/2023 16:05:26.530,1.133,0.102,-0.113
4/21/2023 16:05:26.540,1.133,-0.004,-0.055
4/21/2023 16:05:26.550,1.098,-0.063,-0.023
4/21/2023 16:05:26.560,1.082,-0.121,-0.016
4/21/2023 16:05:26.570,1.102,-0.141,-0.059
4/21/2023 16:05:26.580,1.094,-0.117,-0.137
4/21/2023 16:05:26.590,1.039,-0.066,-0.199
4/21/2023 16:05:26.600,0.922,0.035,-0.254
4/21/2023 16:05:26.610,0.836,0.137,-0.289
4/21/2023 16:05:26.620,0.824,0.172,-0.27
4/21/2023 16:05:26.630,0.879,0.172,-0.211
4/21/2023 16:05:26.640,0.941,0.188,-0.195
4/21/2023 16:05:26.650,0.992,0.246,-0.199
4/21/2023 16:05:26.660,1.047,0.277,-0.207
4/21/2023 16:05:26.670,1.094,0.27,-0.215
4/21/2023 16:05:26.680,1.109,0.23,-0.23
4/21/2023 16:05:26.690,1.121,0.215,-0.199
4/21/2023 16:05:26.700,1.152,0.184,-0.168
4/21/2023 16:05:26.710,1.176,0.121,-0.129
4/21/2023 16:05:26.720,1.18,0.078,-0.051
4/21/2023 16:05:26.730,1.184,0.051,0.012
4/21/2023 16:05:26.740,1.156,0.039,-0.031
4/21/2023 16:05:26.750,1.184,0.082,-0.113
4/21/2023 16:05:26.760,1.281,0.082,-0.199
4/21/2023 16:05:26.770,1.301,0.082,-0.223
4/21/2023 16:05:26.780,1.332,0.023,-0.172
4/21/2023 16:05:26.790,1.449,-0.004,-0.156
4/21/2023 16:05:26.800,1.543,-0.02,-0.293
4/21/2023 16:05:26.810,1.555,-0.105,-0.262
4/21/2023 16:05:26.820,1.602,-0.168,-0.164
4/21/2023 16:05:26.830,1.652,-0.227,-0.215
4/21/2023 16:05:26.840,1.707,-0.301,-0.293
4/21/2023 16:05:26.850,1.824,-0.449,-0.402
4/21/2023 16:05:26.860,1.973,-0.66,-0.555
4/21/2023 16:05:26.870,2.07,-0.914,-0.723
4/21/2023 16:05:26.880,2.063,-1.176,-0.797
4/21/2023 16:05:26.890,1.895,-1.184,-0.746
4/21/2023 16:05:26.900,1.832,-0.754,-0.543
4/21/2023 16:05:26.910,2.188,-0.102,-0.371
4/21/2023 16:05:26.920,2.355,-0.047,-0.637
4/21/2023 16:05:26.930,2.352,-0.281,-0.855
4/21/2023 16:05:26.940,2.383,-0.395,-1.25
4/21/2023 16:05:26.950,1.801,-0.027,-1.027
4/21/2023 16:05:26.960,0.813,0.57,-1.004
4/21/2023 16:05:26.970,0.285,0.629,-1.148
4/21/2023 16:05:26.980,0.617,0.32,-0.848
4/21/2023 16:05:26.990,0.922,-0.344,-0.617
4/21/2023 16:05:27.000,0.969,-0.855,-0.523
4/21/2023 16:05:27.010,0.813,-0.926,-0.328
4/21/2023 16:05:27.020,0.578,-0.77,-0.117
4/21/2023 16:05:27.030,0.348,-0.613,-0.016
4/21/2023 16:05:27.040,0.172,-0.563,-0.055
4/21/2023 16:05:27.050,0.121,-0.523,-0.117
4/21/2023 16:05:27.060,0.152,-0.465,-0.188
4/21/2023 16:05:27.070,0.18,-0.461,-0.223
4/21/2023 16:05:27.080,0.199,-0.551,-0.164
4/21/2023 16:05:27.090,0.262,-0.715,-0.094
4/21/2023 16:05:27.100,0.391,-0.84,-0.059
4/21/2023 16:05:27.110,0.586,-0.82,-0.074
4/21/2023 16:05:27.120,0.781,-0.707,-0.129
4/21/2023 16:05:27.130,0.957,-0.57,-0.172
4/21/2023 16:05:27.140,1.117,-0.5,-0.184
4/21/2023 16:05:27.150,1.273,-0.488,-0.172
4/21/2023 16:05:27.160,1.453,-0.484,-0.152
4/21/2023 16:05:27.170,1.684,-0.418,-0.133
4/21/2023 16:05:27.180,1.949,-0.25,-0.117
4/21/2023 16:05:27.190,2.211,0.023,-0.16
4/21/2023 16:05:27.200,2.516,0.344,-0.191
4/21/2023 16:05:27.210,2.957,0.797,-0.176
4/21/2023 16:05:27.220,3.465,1.402,-0.164
4/21/2023 16:05:27.230,3.766,1.996,-0.223
4/21/2023 16:05:27.240,3.605,2.629,-0.207
4/21/2023 16:05:27.250,3.16,3.359,-0.078
4/21/2023 16:05:27.260,2.629,3.922,0.141
4/21/2023 16:05:27.270,2.129,4.219,0.336
4/21/2023 16:05:27.280,1.777,4.289,0.402
4/21/2023 16:05:27.290,1.645,4.246,0.395
4/21/2023 16:05:27.300,1.848,3.887,0.246
4/21/2023 16:05:27.310,1.961,2.383,-0.359
4/21/2023 16:05:27.320,1.633,-0.875,-0.98
4/21/2023 16:05:27.330,1.734,-3.43,-0.188
4/21/2023 16:05:27.340,1.801,-1.613,0.535
4/21/2023 16:05:27.350,2.148,1.676,1.031
4/21/2023 16:05:27.360,2.555,1.957,0.422
4/21/2023 16:05:27.370,2.473,0.594,-0.328
4/21/2023 16:05:27.380,2.055,0.348,-0.414
4/21/2023 16:05:27.390,1.297,0.57,-0.219
4/21/2023 16:05:27.400,0.586,0.469,-0.121
4/21/2023 16:05:27.410,0.266,0.293,-0.133
4/21/2023 16:05:27.420,0.34,0.258,-0.285
4/21/2023 16:05:27.430,0.621,0.375,-0.41
4/21/2023 16:05:27.440,0.949,0.449,-0.441
4/21/2023 16:05:27.450,1.102,0.434,-0.527
4/21/2023 16:05:27.460,1.078,0.41,-0.52
4/21/2023 16:05:27.470,1.059,0.238,-0.383
4/21/2023 16:05:27.480,1.074,0.082,-0.113
4/21/2023 16:05:27.490,1.066,-0.02,-0.004
4/21/2023 16:05:27.500,1.055,-0.098,0.012
4/21/2023 16:05:27.510,1.094,-0.141,-0.031
4/21/2023 16:05:27.520,1.137,-0.129,-0.098
4/21/2023 16:05:27.530,1.133,-0.074,-0.184
4/21/2023 16:05:27.540,1.047,-0.027,-0.246
4/21/2023 16:05:27.550,0.906,0.039,-0.285
4/21/2023 16:05:27.560,0.793,0.102,-0.285
4/21/2023 16:05:27.570,0.801,0.113,-0.254
4/21/2023 16:05:27.580,0.883,0.105,-0.234
4/21/2023 16:05:27.590,0.961,0.125,-0.223
4/21/2023 16:05:27.600,1.02,0.168,-0.223
4/21/2023 16:05:27.610,1.074,0.172,-0.23
4/21/2023 16:05:27.620,1.078,0.133,-0.242
4/21/2023 16:05:27.630,1.031,0.082,-0.238
4/21/2023 16:05:27.640,1,0.043,-0.188
4/21/2023 16:05:27.650,1,0.02,-0.129
4/21/2023 16:05:27.660,0.98,0.02,-0.141
4/21/2023 16:05:27.670,0.984,0.059,-0.164
4/21/2023 16:05:27.680,1.055,0.063,-0.211
4/21/2023 16:05:27.690,1.145,0.086,-0.281
4/21/2023 16:05:27.700,1.211,0.113,-0.324
4/21/2023 16:05:27.710,1.254,0.047,-0.27
4/21/2023 16:05:27.720,1.32,0.047,-0.246
4/21/2023 16:05:27.730,1.395,0.039,-0.254
4/21/2023 16:05:27.740,1.461,0.031,-0.234
4/21/2023 16:05:27.750,1.5,-0.012,-0.18
4/21/2023 16:05:27.760,1.539,-0.02,-0.117
4/21/2023 16:05:27.770,1.605,-0.043,-0.102
4/21/2023 16:05:27.780,1.719,-0.078,-0.184
4/21/2023 16:05:27.790,1.836,-0.137,-0.32
4/21/2023 16:05:27.800,1.953,-0.254,-0.441
4/21/2023 16:05:27.810,2.094,-0.402,-0.598
4/21/2023 16:05:27.820,2.207,-0.641,-0.785
4/21/2023 16:05:27.830,2.242,-0.891,-0.883
4/21/2023 16:05:27.840,2.254,-1.043,-0.766
4/21/2023 16:05:27.850,2.02,-1.074,-0.777
4/21/2023 16:05:27.860,1.813,-0.656,-0.602
4/21/2023 16:05:27.870,2.008,-0.332,-0.547
4/21/2023 16:05:27.880,2.047,-0.246,-0.656
4/21/2023 16:05:27.890,2.059,-0.34,-1.004
4/21/2023 16:05:27.900,2.125,-0.395,-0.824
4/21/2023 16:05:27.910,1.203,0.344,-0.797
4/21/2023 16:05:27.920,0.281,0.871,-1.066
4/21/2023 16:05:27.930,0.086,0.629,-1.051
4/21/2023 16:05:27.940,0.563,0.016,-0.773
4/21/2023 16:05:27.950,0.914,-0.648,-0.703
4/21/2023 16:05:27.960,0.922,-0.98,-0.535
4/21/2023 16:05:27.970,0.758,-1.008,-0.223
4/21/2023 16:05:27.980,0.48,-0.969,0.004
4/21/2023 16:05:27.990,0.211,-0.906,0.047
4/21/2023 16:05:28.000,0.098,-0.68,-0.004
4/21/2023 16:05:28.010,0.152,-0.457,-0.086
4/21/2023 16:05:28.020,0.234,-0.406,-0.117
4/21/2023 16:05:28.030,0.309,-0.547,-0.016
4/21/2023 16:05:28.040,0.375,-0.785,0.125
4/21/2023 16:05:28.050,0.434,-0.965,0.188
4/21/2023 16:05:28.060,0.555,-0.977,0.129
4/21/2023 16:05:28.070,0.738,-0.852,0.035
4/21/2023 16:05:28.080,0.918,-0.707,-0.066
4/21/2023 16:05:28.090,1.074,-0.609,-0.16
4/21/2023 16:05:28.100,1.227,-0.563,-0.203
4/21/2023 16:05:28.110,1.422,-0.543,-0.227
4/21/2023 16:05:28.120,1.664,-0.465,-0.266
4/21/2023 16:05:28.130,1.953,-0.309,-0.289
4/21/2023 16:05:28.140,2.254,-0.074,-0.297
4/21/2023 16:05:28.150,2.52,0.246,-0.309
4/21/2023 16:05:28.160,2.828,0.676,-0.293
4/21/2023 16:05:28.170,3.238,1.199,-0.223
4/21/2023 16:05:28.180,3.582,1.746,-0.27
4/21/2023 16:05:28.190,3.605,2.34,-0.344
4/21/2023 16:05:28.200,3.266,3.051,-0.309
4/21/2023 16:05:28.210,2.77,3.711,-0.113
4/21/2023 16:05:28.220,2.246,4.082,0.125
4/21/2023 16:05:28.230,1.809,4.176,0.242
4/21/2023 16:05:28.240,1.613,4.094,0.277
4/21/2023 16:05:28.250,1.648,3.922,0.352
4/21/2023 16:05:28.260,1.82,3.461,0.141
4/21/2023 16:05:28.270,1.797,1.539,-0.68
4/21/2023 16:05:28.280,1.434,-1.984,-1.113
4/21/2023 16:05:28.290,1.355,-3.559,-0.113
4/21/2023 16:05:28.300,1.25,-1.617,0.574
4/21/2023 16:05:28.310,1.77,1.352,1.066
4/21/2023 16:05:28.320,2.238,1.797,0.246
4/21/2023 16:05:28.330,2.395,0.688,-0.508
4/21/2023 16:05:28.340,2.242,0.551,-0.563
4/21/2023 16:05:28.350,1.625,0.711,-0.273
4/21/2023 16:05:28.360,1,0.438,-0.004
4/21/2023 16:05:28.370,0.629,0.215,0.016
4/21/2023 16:05:28.380,0.484,0.191,-0.254
4/21/2023 16:05:28.390,0.563,0.285,-0.488
4/21/2023 16:05:28.400,0.809,0.375,-0.496
4/21/2023 16:05:28.410,1.004,0.395,-0.461
4/21/2023 16:05:28.420,1.012,0.246,-0.535
4/21/2023 16:05:28.430,0.98,0.129,-0.43
4/21/2023 16:05:28.440,0.977,0.074,-0.16
4/21/2023 16:05:28.450,0.977,-0.023,-0.012
4/21/2023 16:05:28.460,0.988,-0.094,0.004
4/21/2023 16:05:28.470,1.023,-0.109,-0.043
