------------ Data File Created By ActiGraph GT3X+ ActiLife v6.13.4 Firmware v1.7.2 date format M/d/yyyy at 100 Hz  Filter Normal -----------
Serial Number: TAS1H34200054
Start Time 16:05:00
Start Date 4/21/2023
Epoch Period (hh:mm:ss) 00:00:00
Download Time 16:20:14
Download Date 4/21/2023
Current Memory Address: 0
Current Battery Voltage: 4.16     Mode = 12
--------------------------------------------------
Timestamp,Accelerometer X,Accelerometer Y,Accelerometer Z
4/21/2023 16:05:00.000,-0.012,-1.035,-0.035
4/21/2023 16:05:00.010,0,-1.035,-0.035
4/21/2023 16:05:00.020,0,-1.027,-0.031
4/21/2023 16:05:00.030,0.008,-1.027,-0.031
4/21/2023 16:05:00.040,0.012,-1.031,-0.031
4/21/2023 16:05:00.050,0.016,-1.027,-0.031
4/21/2023 16:05:00.060,0.012,-1.035,-0.035
4/21/2023 16:05:00.070,0.004,-1.039,-0.031
4/21/2023 16:05:00.080,0,-1.043,-0.035
4/21/2023 16:05:00.090,0.004,-1.039,-0.035
4/21/2023 16:05:00.100,0.004,-1.027,-0.035
4/21/2023 16:05:00.110,0,-1.027,-0.039
4/21/2023 16:05:00.120,0,-1.023,-0.039
4/21/2023 16:05:00.130,0,-1.016,-0.039
4/21/2023 16:05:00.140,0.004,-1.02,-0.035
4/21/2023 16:05:00.150,0.004,-1.016,-0.031
4/21/2023 16:05:00.160,0.004,-1.004,-0.035
4/21/2023 16:05:00.170,0,-0.996,-0.039
4/21/2023 16:05:00.180,-0.008,-0.984,-0.039
4/21/2023 16:05:00.190,-0.02,-0.98,-0.051
4/21/2023 16:05:00.200,-0.051,-0.992,-0.082
4/21/2023 16:05:00.210,-0.086,-1.043,-0.105
4/21/2023 16:05:00.220,-0.113,-1.113,-0.094
4/21/2023 16:05:00.230,-0.125,-1.188,-0.043
4/21/2023 16:05:00.240,-0.109,-1.188,-0.008
4/21/2023 16:05:00.250,-0.059,-1.109,0.027
4/21/2023 16:05:00.260,0.02,-1.008,0.09
4/21/2023 16:05:00.270,0.109,-0.898,0.133
4/21/2023 16:05:00.280,0.172,-0.813,0.141
4/21/2023 16:05:00.290,0.215,-0.777,0.133
4/21/2023 16:05:00.300,0.254,-0.824,0.129
4/21/2023 16:05:00.310,0.254,-0.914,0.121
4/21/2023 16:05:00.320,0.199,-1.012,0.063
4/21/2023 16:05:00.330,0.105,-1.098,-0.012
4/21/2023 16:05:00.340,0.02,-1.148,-0.063
4/21/2023 16:05:00.350,-0.047,-1.168,-0.09
4/21/2023 16:05:00.360,-0.086,-1.137,-0.113
4/21/2023 16:05:00.370,-0.098,-1.063,-0.137
4/21/2023 16:05:00.380,-0.09,-0.98,-0.152
4/21/2023 16:05:00.390,-0.078,-0.902,-0.164
4/21/2023 16:05:00.400,-0.047,-0.836,-0.176
4/21/2023 16:05:00.410,0.004,-0.785,-0.176
4/21/2023 16:05:00.420,0.078,-0.758,-0.16
4/21/2023 16:05:00.430,0.145,-0.766,-0.137
4/21/2023 16:05:00.440,0.188,-0.828,-0.121
4/21/2023 16:05:00.450,0.176,-0.945,-0.129
4/21/2023 16:05:00.460,0.109,-1.105,-0.145
4/21/2023 16:05:00.470,0.023,-1.289,-0.156
4/21/2023 16:05:00.480,-0.008,-1.453,-0.121
4/21/2023 16:05:00.490,0.031,-1.504,-0.066
4/21/2023 16:05:00.500,0.086,-1.406,0
4/21/2023 16:05:00.510,0.109,-1.207,0.051
4/21/2023 16:05:00.520,0.094,-0.984,0.094
4/21/2023 16:05:00.530,0.043,-0.785,0.094
4/21/2023 16:05:00.540,-0.023,-0.664,0.063
4/21/2023 16:05:00.550,-0.094,-0.645,0.012
4/21/2023 16:05:00.560,-0.148,-0.734,-0.004
4/21/2023 16:05:00.570,-0.188,-0.883,0
4/21/2023 16:05:00.580,-0.23,-1.027,-0.035
4/21/2023 16:05:00.590,-0.266,-1.141,-0.09
4/21/2023 16:05:00.600,-0.273,-1.211,-0.121
4/21/2023 16:05:00.610,-0.23,-1.227,-0.133
4/21/2023 16:05:00.620,-0.168,-1.203,-0.129
4/21/2023 16:05:00.630,-0.105,-1.137,-0.125
4/21/2023 16:05:00.640,-0.051,-1.047,-0.125
4/21/2023 16:05:00.650,-0.012,-0.965,-0.105
4/21/2023 16:05:00.660,0.035,-0.914,-0.066
4/21/2023 16:05:00.670,0.078,-0.902,-0.02
4/21/2023 16:05:00.680,0.109,-0.914,0.012
4/21/2023 16:05:00.690,0.133,-0.938,0.027
4/21/2023 16:05:00.700,0.125,-0.957,0.027
4/21/2023 16:05:00.710,0.094,-0.965,0.004
4/21/2023 16:05:00.720,0.07,-0.949,-0.023
4/21/2023 16:05:00.730,0.078,-0.941,-0.02
4/21/2023 16:05:00.740,0.105,-0.945,-0.012
4/21/2023 16:05:00.750,0.121,-0.969,-0.02
4/21/2023 16:05:00.760,0.141,-1.008,-0.039
4/21/2023 16:05:00.770,0.168,-1.051,-0.055
4/21/2023 16:05:00.780,0.207,-1.074,-0.039
4/21/2023 16:05:00.790,0.238,-1.063,-0.02
4/21/2023 16:05:00.800,0.25,-1.031,-0.012
4/21/2023 16:05:00.810,0.258,-0.98,-0.023
4/21/2023 16:05:00.820,0.262,-0.938,-0.043
4/21/2023 16:05:00.830,0.254,-0.914,-0.055
4/21/2023 16:05:00.840,0.223,-0.93,-0.074
4/21/2023 16:05:00.850,0.176,-0.98,-0.078
4/21/2023 16:05:00.860,0.117,-1.051,-0.078
4/21/2023 16:05:00.870,0.059,-1.113,-0.074
4/21/2023 16:05:00.880,0,-1.156,-0.063
4/21/2023 16:05:00.890,-0.059,-1.176,-0.043
4/21/2023 16:05:00.900,-0.105,-1.184,-0.008
4/21/2023 16:05:00.910,-0.094,-1.176,0.016
4/21/2023 16:05:00.920,-0.027,-1.168,0.02
4/21/2023 16:05:00.930,0.055,-1.176,0.008
4/21/2023 16:05:00.940,0.133,-1.203,-0.008
4/21/2023 16:05:00.950,0.195,-1.234,-0.023
4/21/2023 16:05:00.960,0.223,-1.266,-0.086
4/21/2023 16:05:00.970,0.223,-1.34,-0.156
4/21/2023 16:05:00.980,0.262,-1.48,-0.203
4/21/2023 16:05:00.990,0.328,-1.648,-0.215
4/21/2023 16:05:01.000,0.309,-1.781,-0.273
4/21/2023 16:05:01.010,0.164,-1.785,-0.43
4/21/2023 16:05:01.020,-0.07,-1.754,-0.598
4/21/2023 16:05:01.030,-0.309,-1.75,-0.648
4/21/2023 16:05:01.040,-0.449,-1.719,-0.633
4/21/2023 16:05:01.050,-0.516,-1.621,-0.633
4/21/2023 16:05:01.060,-0.508,-1.41,-0.617
4/21/2023 16:05:01.070,-0.449,-1.176,-0.488
4/21/2023 16:05:01.080,-0.336,-0.922,-0.34
4/21/2023 16:05:01.090,-0.199,-0.691,-0.215
4/21/2023 16:05:01.100,-0.078,-0.563,-0.172
4/21/2023 16:05:01.110,-0.039,-0.5,-0.227
4/21/2023 16:05:01.120,-0.082,-0.531,-0.32
4/21/2023 16:05:01.130,-0.16,-0.684,-0.34
4/21/2023 16:05:01.140,-0.238,-0.918,-0.316
4/21/2023 16:05:01.150,-0.309,-1.133,-0.313
4/21/2023 16:05:01.160,-0.348,-1.238,-0.332
4/21/2023 16:05:01.170,-0.352,-1.203,-0.34
4/21/2023 16:05:01.180,-0.332,-1.066,-0.332
4/21/2023 16:05:01.190,-0.289,-0.879,-0.297
4/21/2023 16:05:01.200,-0.246,-0.699,-0.258
4/21/2023 16:05:01.210,-0.215,-0.559,-0.215
4/21/2023 16:05:01.220,-0.176,-0.457,-0.16
4/21/2023 16:05:01.230,-0.137,-0.395,-0.102
4/21/2023 16:05:01.240,-0.086,-0.359,-0.051
4/21/2023 16:05:01.250,-0.059,-0.355,-0.02
4/21/2023 16:05:01.260,-0.051,-0.391,0.012
4/21/2023 16:05:01.270,-0.051,-0.473,0.051
4/21/2023 16:05:01.280,-0.047,-0.57,0.094
4/21/2023 16:05:01.290,-0.023,-0.652,0.121
4/21/2023 16:05:01.300,0.02,-0.699,0.137
4/21/2023 16:05:01.310,0.063,-0.723,0.121
4/21/2023 16:05:01.320,0.086,-0.738,0.066
4/21/2023 16:05:01.330,0.082,-0.773,0.008
4/21/2023 16:05:01.340,0.078,-0.84,0.027
4/21/2023 16:05:01.350,0.078,-0.934,0.109
4/21/2023 16:05:01.360,0.082,-1.043,0.168
4/21/2023 16:05:01.370,0.102,-1.125,0.156
4/21/2023 16:05:01.380,0.129,-1.168,0.102
4/21/2023 16:05:01.390,0.188,-1.168,0.035
4/21/2023 16:05:01.400,0.27,-1.156,-0.004
4/21/2023 16:05:01.410,0.359,-1.148,-0.031
4/21/2023 16:05:01.420,0.375,-1.168,-0.023
4/21/2023 16:05:01.430,0.273,-1.227,-0.016
4/21/2023 16:05:01.440,0.035,-1.344,0.023
4/21/2023 16:05:01.450,-0.219,-1.492,-0.004
4/21/2023 16:05:01.460,-0.418,-1.613,-0.113
4/21/2023 16:05:01.470,-0.566,-1.676,-0.297
4/21/2023 16:05:01.480,-0.672,-1.688,-0.523
4/21/2023 16:05:01.490,-0.707,-1.695,-0.633
4/21/2023 16:05:01.500,-0.652,-1.703,-0.629
4/21/2023 16:05:01.510,-0.527,-1.652,-0.57
4/21/2023 16:05:01.520,-0.434,-1.496,-0.57
4/21/2023 16:05:01.530,-0.383,-1.266,-0.605
4/21/2023 16:05:01.540,-0.363,-1.051,-0.516
4/21/2023 16:05:01.550,-0.309,-0.879,-0.324
4/21/2023 16:05:01.560,-0.188,-0.746,-0.219
4/21/2023 16:05:01.570,-0.082,-0.668,-0.234
4/21/2023 16:05:01.580,-0.023,-0.652,-0.34
4/21/2023 16:05:01.590,0.023,-0.691,-0.43
4/21/2023 16:05:01.600,0.082,-0.82,-0.383
4/21/2023 16:05:01.610,0.098,-0.984,-0.234
4/21/2023 16:05:01.620,0.039,-1.109,-0.125
4/21/2023 16:05:01.630,-0.07,-1.117,-0.16
4/21/2023 16:05:01.640,-0.148,-0.988,-0.254
4/21/2023 16:05:01.650,-0.172,-0.809,-0.293
4/21/2023 16:05:01.660,-0.184,-0.625,-0.285
4/21/2023 16:05:01.670,-0.215,-0.496,-0.293
4/21/2023 16:05:01.680,-0.273,-0.441,-0.281
4/21/2023 16:05:01.690,-0.293,-0.48,-0.203
4/21/2023 16:05:01.700,-0.266,-0.574,-0.121
4/21/2023 16:05:01.710,-0.195,-0.656,-0.098
4/21/2023 16:05:01.720,-0.102,-0.668,-0.117
4/21/2023 16:05:01.730,-0.027,-0.652,-0.141
4/21/2023 16:05:01.740,0.02,-0.637,-0.133
4/21/2023 16:05:01.750,0.051,-0.637,-0.117
4/21/2023 16:05:01.760,0.055,-0.652,-0.105
4/21/2023 16:05:01.770,0.016,-0.691,-0.105
4/21/2023 16:05:01.780,-0.047,-0.762,-0.105
4/21/2023 16:05:01.790,-0.121,-0.84,-0.129
4/21/2023 16:05:01.800,-0.191,-0.922,-0.137
4/21/2023 16:05:01.810,-0.227,-0.996,-0.129
4/21/2023 16:05:01.820,-0.246,-1.07,-0.09
4/21/2023 16:05:01.830,-0.203,-1.117,-0.055
4/21/2023 16:05:01.840,-0.141,-1.148,-0.02
4/21/2023 16:05:01.850,-0.086,-1.203,0.016
4/21/2023 16:05:01.860,-0.012,-1.27,0.063
4/21/2023 16:05:01.870,0.09,-1.316,0.094
4/21/2023 16:05:01.880,0.23,-1.305,0.121
4/21/2023 16:05:01.890,0.371,-1.289,0.152
4/21/2023 16:05:01.900,0.492,-1.281,0.145
4/21/2023 16:05:01.910,0.594,-1.25,0.121
4/21/2023 16:05:01.920,0.668,-1.199,0.117
4/21/2023 16:05:01.930,0.668,-1.156,0.102
4/21/2023 16:05:01.940,0.512,-1.137,-0.004
4/21/2023 16:05:01.950,0.168,-1.16,-0.27
4/21/2023 16:05:01.960,-0.227,-1.262,-0.578
4/21/2023 16:05:01.970,-0.469,-1.41,-0.758
4/21/2023 16:05:01.980,-0.535,-1.508,-0.781
4/21/2023 16:05:01.990,-0.531,-1.535,-0.68
4/21/2023 16:05:02.000,-0.527,-1.441,-0.586
4/21/2023 16:05:02.010,-0.52,-1.27,-0.508
4/21/2023 16:05:02.020,-0.52,-1.07,-0.473
4/21/2023 16:05:02.030,-0.543,-0.887,-0.477
4/21/2023 16:05:02.040,-0.543,-0.863,-0.484
4/21/2023 16:05:02.050,-0.488,-1.031,-0.391
4/21/2023 16:05:02.060,-0.391,-1.27,-0.305
4/21/2023 16:05:02.070,-0.293,-1.488,-0.266
4/21/2023 16:05:02.080,-0.219,-1.598,-0.254
4/21/2023 16:05:02.090,-0.145,-1.566,-0.258
4/21/2023 16:05:02.100,-0.059,-1.422,-0.25
4/21/2023 16:05:02.110,0.051,-1.227,-0.207
4/21/2023 16:05:02.120,0.145,-1.023,-0.148
4/21/2023 16:05:02.130,0.191,-0.84,-0.086
4/21/2023 16:05:02.140,0.191,-0.691,-0.004
4/21/2023 16:05:02.150,0.176,-0.551,0.063
4/21/2023 16:05:02.160,0.176,-0.414,0.074
4/21/2023 16:05:02.170,0.18,-0.324,0.059
4/21/2023 16:05:02.180,0.18,-0.281,0.047
4/21/2023 16:05:02.190,0.129,-0.313,0.078
4/21/2023 16:05:02.200,0.027,-0.395,0.137
4/21/2023 16:05:02.210,-0.078,-0.574,0.191
4/21/2023 16:05:02.220,-0.141,-0.734,0.164
4/21/2023 16:05:02.230,-0.141,-0.793,0.059
4/21/2023 16:05:02.240,-0.113,-0.828,0.016
4/21/2023 16:05:02.250,-0.063,-0.891,0.09
4/21/2023 16:05:02.260,0.004,-0.961,0.188
4/21/2023 16:05:02.270,0.078,-0.984,0.195
4/21/2023 16:05:02.280,0.164,-0.949,0.121
4/21/2023 16:05:02.290,0.238,-0.895,0.09
4/21/2023 16:05:02.300,0.25,-0.84,0.125
4/21/2023 16:05:02.310,0.238,-0.785,0.164
4/21/2023 16:05:02.320,0.281,-0.75,0.18
4/21/2023 16:05:02.330,0.371,-0.738,0.102
4/21/2023 16:05:02.340,0.418,-0.758,-0.039
4/21/2023 16:05:02.350,0.387,-0.887,-0.129
4/21/2023 16:05:02.360,0.266,-1.211,-0.004
4/21/2023 16:05:02.370,0.039,-1.727,0.184
4/21/2023 16:05:02.380,-0.207,-2.109,0.051
4/21/2023 16:05:02.390,-0.387,-2.227,-0.125
4/21/2023 16:05:02.400,-0.438,-2.129,-0.117
4/21/2023 16:05:02.410,-0.375,-1.816,-0.07
4/21/2023 16:05:02.420,-0.297,-1.43,-0.082
4/21/2023 16:05:02.430,-0.262,-1.129,-0.219
4/21/2023 16:05:02.440,-0.273,-0.934,-0.426
4/21/2023 16:05:02.450,-0.352,-0.879,-0.563
4/21/2023 16:05:02.460,-0.508,-0.961,-0.609
4/21/2023 16:05:02.470,-0.641,-1.102,-0.672
4/21/2023 16:05:02.480,-0.688,-1.258,-0.738
4/21/2023 16:05:02.490,-0.613,-1.355,-0.695
4/21/2023 16:05:02.500,-0.48,-1.34,-0.543
4/21/2023 16:05:02.510,-0.328,-1.246,-0.371
4/21/2023 16:05:02.520,-0.219,-1.141,-0.34
4/21/2023 16:05:02.530,-0.109,-1.051,-0.375
4/21/2023 16:05:02.540,0.09,-0.965,-0.336
4/21/2023 16:05:02.550,0.34,-0.844,-0.184
4/21/2023 16:05:02.560,0.484,-0.668,-0.016
4/21/2023 16:05:02.570,0.488,-0.48,0.031
4/21/2023 16:05:02.580,0.379,-0.309,-0.02
4/21/2023 16:05:02.590,0.215,-0.195,-0.102
4/21/2023 16:05:02.600,0.016,-0.172,-0.172
4/21/2023 16:05:02.610,-0.195,-0.258,-0.219
4/21/2023 16:05:02.620,-0.395,-0.477,-0.215
4/21/2023 16:05:02.630,-0.535,-0.809,-0.121
4/21/2023 16:05:02.640,-0.563,-1.129,-0.059
4/21/2023 16:05:02.650,-0.457,-1.223,-0.121
4/21/2023 16:05:02.660,-0.316,-1.125,-0.164
4/21/2023 16:05:02.670,-0.188,-0.934,-0.125
4/21/2023 16:05:02.680,-0.059,-0.719,-0.043
4/21/2023 16:05:02.690,0.055,-0.539,0.004
4/21/2023 16:05:02.700,0.137,-0.434,-0.012
4/21/2023 16:05:02.710,0.207,-0.453,-0.031
4/21/2023 16:05:02.720,0.234,-0.602,-0.027
4/21/2023 16:05:02.730,0.234,-0.852,-0.008
4/21/2023 16:05:02.740,0.207,-1.094,-0.043
4/21/2023 16:05:02.750,0.195,-1.242,-0.078
4/21/2023 16:05:02.760,0.188,-1.285,-0.059
4/21/2023 16:05:02.770,0.172,-1.25,-0.031
4/21/2023 16:05:02.780,0.145,-1.191,-0.008
4/21/2023 16:05:02.790,0.109,-1.148,0.039
4/21/2023 16:05:02.800,0.098,-1.133,0.078
4/21/2023 16:05:02.810,0.121,-1.141,0.109
4/21/2023 16:05:02.820,0.184,-1.176,0.125
4/21/2023 16:05:02.830,0.281,-1.223,0.082
4/21/2023 16:05:02.840,0.387,-1.242,0.035
4/21/2023 16:05:02.850,0.492,-1.246,-0.004
4/21/2023 16:05:02.860,0.543,-1.246,-0.023
4/21/2023 16:05:02.870,0.422,-1.242,-0.105
4/21/2023 16:05:02.880,0.121,-1.297,-0.328
4/21/2023 16:05:02.890,-0.164,-1.355,-0.641
4/21/2023 16:05:02.900,-0.367,-1.398,-0.793
4/21/2023 16:05:02.910,-0.473,-1.414,-0.754
4/21/2023 16:05:02.920,-0.508,-1.316,-0.68
4/21/2023 16:05:02.930,-0.605,-1.18,-0.547
4/21/2023 16:05:02.940,-0.715,-1.074,-0.426
4/21/2023 16:05:02.950,-0.723,-1.012,-0.453
4/21/2023 16:05:02.960,-0.652,-1.078,-0.492
4/21/2023 16:05:02.970,-0.563,-1.313,-0.422
4/21/2023 16:05:02.980,-0.457,-1.594,-0.289
4/21/2023 16:05:02.990,-0.336,-1.715,-0.23
4/21/2023 16:05:03.000,-0.172,-1.617,-0.23
4/21/2023 16:05:03.010,0.016,-1.418,-0.211
4/21/2023 16:05:03.020,0.133,-1.258,-0.191
4/21/2023 16:05:03.030,0.18,-1.18,-0.164
4/21/2023 16:05:03.040,0.223,-1.113,-0.113
4/21/2023 16:05:03.050,0.254,-1.008,-0.074
4/21/2023 16:05:03.060,0.25,-0.867,-0.059
4/21/2023 16:05:03.070,0.223,-0.727,-0.039
4/21/2023 16:05:03.080,0.203,-0.609,0.004
4/21/2023 16:05:03.090,0.164,-0.512,0.055
4/21/2023 16:05:03.100,0.121,-0.438,0.086
4/21/2023 16:05:03.110,0.082,-0.379,0.09
4/21/2023 16:05:03.120,0.023,-0.367,0.094
4/21/2023 16:05:03.130,-0.023,-0.391,0.082
4/21/2023 16:05:03.140,-0.055,-0.434,0.066
4/21/2023 16:05:03.150,-0.07,-0.5,0.07
4/21/2023 16:05:03.160,-0.078,-0.594,0.09
4/21/2023 16:05:03.170,-0.086,-0.711,0.125
4/21/2023 16:05:03.180,-0.051,-0.816,0.152
4/21/2023 16:05:03.190,0.023,-0.891,0.168
4/21/2023 16:05:03.200,0.133,-0.938,0.164
4/21/2023 16:05:03.210,0.223,-0.961,0.145
4/21/2023 16:05:03.220,0.281,-0.941,0.059
4/21/2023 16:05:03.230,0.344,-0.902,0.031
4/21/2023 16:05:03.240,0.352,-0.883,0.125
4/21/2023 16:05:03.250,0.301,-0.855,0.113
4/21/2023 16:05:03.260,0.219,-0.816,0.004
4/21/2023 16:05:03.270,0.109,-0.867,-0.055
4/21/2023 16:05:03.280,-0.02,-1.043,0.004
4/21/2023 16:05:03.290,-0.164,-1.383,0.164
4/21/2023 16:05:03.300,-0.289,-1.715,0.207
4/21/2023 16:05:03.310,-0.332,-1.871,0.086
4/21/2023 16:05:03.320,-0.293,-1.875,-0.031
4/21/2023 16:05:03.330,-0.219,-1.707,-0.109
4/21/2023 16:05:03.340,-0.156,-1.43,-0.234
4/21/2023 16:05:03.350,-0.18,-1.238,-0.402
4/21/2023 16:05:03.360,-0.203,-1.16,-0.535
4/21/2023 16:05:03.370,-0.277,-1.176,-0.605
4/21/2023 16:05:03.380,-0.418,-1.238,-0.711
4/21/2023 16:05:03.390,-0.551,-1.359,-0.875
4/21/2023 16:05:03.400,-0.613,-1.543,-0.887
4/21/2023 16:05:03.410,-0.563,-1.703,-0.633
4/21/2023 16:05:03.420,-0.379,-1.695,-0.363
4/21/2023 16:05:03.430,-0.207,-1.48,-0.27
4/21/2023 16:05:03.440,-0.105,-1.188,-0.285
4/21/2023 16:05:03.450,0.043,-0.879,-0.297
4/21/2023 16:05:03.460,0.223,-0.609,-0.223
4/21/2023 16:05:03.470,0.332,-0.449,-0.094
4/21/2023 16:05:03.480,0.293,-0.383,0.008
4/21/2023 16:05:03.490,0.152,-0.367,0
4/21/2023 16:05:03.500,-0.012,-0.391,-0.07
4/21/2023 16:05:03.510,-0.109,-0.477,-0.125
4/21/2023 16:05:03.520,-0.215,-0.629,-0.184
4/21/2023 16:05:03.530,-0.316,-0.848,-0.211
4/21/2023 16:05:03.540,-0.371,-1.031,-0.227
4/21/2023 16:05:03.550,-0.336,-1.066,-0.223
4/21/2023 16:05:03.560,-0.289,-0.973,-0.219
4/21/2023 16:05:03.570,-0.238,-0.801,-0.223
4/21/2023 16:05:03.580,-0.18,-0.613,-0.184
4/21/2023 16:05:03.590,-0.121,-0.445,-0.137
4/21/2023 16:05:03.600,-0.078,-0.359,-0.105
4/21/2023 16:05:03.610,-0.023,-0.379,-0.09
4/21/2023 16:05:03.620,0.023,-0.508,-0.07
4/21/2023 16:05:03.630,0.023,-0.715,-0.07
4/21/2023 16:05:03.640,-0.008,-0.91,-0.09
4/21/2023 16:05:03.650,-0.035,-1.02,-0.125
4/21/2023 16:05:03.660,-0.059,-1.055,-0.113
4/21/2023 16:05:03.670,-0.078,-1.035,-0.055
4/21/2023 16:05:03.680,-0.055,-0.988,0.012
4/21/2023 16:05:03.690,-0.008,-0.969,0.078
4/21/2023 16:05:03.700,0.063,-0.969,0.117
4/21/2023 16:05:03.710,0.16,-1.012,0.148
4/21/2023 16:05:03.720,0.266,-1.09,0.176
4/21/2023 16:05:03.730,0.387,-1.164,0.188
4/21/2023 16:05:03.740,0.496,-1.227,0.191
4/21/2023 16:05:03.750,0.609,-1.246,0.203
4/21/2023 16:05:03.760,0.734,-1.23,0.195
4/21/2023 16:05:03.770,0.816,-1.227,0.203
4/21/2023 16:05:03.780,0.758,-1.262,0.191
4/21/2023 16:05:03.790,0.543,-1.32,0.082
4/21/2023 16:05:03.800,0.227,-1.395,-0.109
4/21/2023 16:05:03.810,-0.078,-1.449,-0.328
4/21/2023 16:05:03.820,-0.336,-1.48,-0.504
4/21/2023 16:05:03.830,-0.453,-1.473,-0.629
4/21/2023 16:05:03.840,-0.531,-1.426,-0.617
4/21/2023 16:05:03.850,-0.586,-1.363,-0.504
4/21/2023 16:05:03.860,-0.574,-1.289,-0.379
4/21/2023 16:05:03.870,-0.473,-1.156,-0.293
4/21/2023 16:05:03.880,-0.34,-0.977,-0.293
4/21/2023 16:05:03.890,-0.246,-0.789,-0.383
4/21/2023 16:05:03.900,-0.172,-0.699,-0.48
4/21/2023 16:05:03.910,-0.102,-0.832,-0.41
4/21/2023 16:05:03.920,-0.09,-1.129,-0.27
4/21/2023 16:05:03.930,-0.133,-1.453,-0.203
4/21/2023 16:05:03.940,-0.18,-1.715,-0.168
4/21/2023 16:05:03.950,-0.168,-1.793,-0.156
4/21/2023 16:05:03.960,-0.109,-1.625,-0.164
4/21/2023 16:05:03.970,-0.027,-1.34,-0.141
4/21/2023 16:05:03.980,0.051,-1.066,-0.094
4/21/2023 16:05:03.990,0.086,-0.852,-0.063
4/21/2023 16:05:04.000,0.105,-0.695,-0.027
4/21/2023 16:05:04.010,0.152,-0.586,0.035
4/21/2023 16:05:04.020,0.207,-0.496,0.063
4/21/2023 16:05:04.030,0.227,-0.418,0.07
4/21/2023 16:05:04.040,0.23,-0.352,0.074
4/21/2023 16:05:04.050,0.207,-0.332,0.074
4/21/2023 16:05:04.060,0.176,-0.363,0.07
4/21/2023 16:05:04.070,0.133,-0.445,0.082
4/21/2023 16:05:04.080,0.063,-0.621,0.109
4/21/2023 16:05:04.090,-0.027,-0.813,0.121
4/21/2023 16:05:04.100,-0.09,-0.938,0.102
4/21/2023 16:05:04.110,-0.086,-0.977,0.086
4/21/2023 16:05:04.120,-0.027,-0.965,0.129
4/21/2023 16:05:04.130,0.027,-0.934,0.18
4/21/2023 16:05:04.140,0.07,-0.887,0.188
4/21/2023 16:05:04.150,0.129,-0.82,0.156
4/21/2023 16:05:04.160,0.188,-0.75,0.137
4/21/2023 16:05:04.170,0.254,-0.715,0.172
4/21/2023 16:05:04.180,0.316,-0.703,0.145
4/21/2023 16:05:04.190,0.324,-0.742,0.039
4/21/2023 16:05:04.200,0.293,-0.855,-0.023
4/21/2023 16:05:04.210,0.195,-1.105,0.031
4/21/2023 16:05:04.220,0.02,-1.531,0.141
4/21/2023 16:05:04.230,-0.188,-1.953,0.105
4/21/2023 16:05:04.240,-0.328,-2.168,-0.02
4/21/2023 16:05:04.250,-0.387,-2.082,-0.125
4/21/2023 16:05:04.260,-0.355,-1.793,-0.191
4/21/2023 16:05:04.270,-0.316,-1.496,-0.281
4/21/2023 16:05:04.280,-0.316,-1.313,-0.453
4/21/2023 16:05:04.290,-0.348,-1.258,-0.594
4/21/2023 16:05:04.300,-0.469,-1.328,-0.68
4/21/2023 16:05:04.310,-0.566,-1.465,-0.711
4/21/2023 16:05:04.320,-0.605,-1.582,-0.629
4/21/2023 16:05:04.330,-0.504,-1.516,-0.48
4/21/2023 16:05:04.340,-0.34,-1.281,-0.297
4/21/2023 16:05:04.350,-0.234,-0.965,-0.262
4/21/2023 16:05:04.360,-0.207,-0.691,-0.324
4/21/2023 16:05:04.370,-0.18,-0.563,-0.367
4/21/2023 16:05:04.380,-0.09,-0.594,-0.324
4/21/2023 16:05:04.390,0.047,-0.727,-0.199
4/21/2023 16:05:04.400,0.16,-0.875,-0.063
4/21/2023 16:05:04.410,0.207,-0.926,-0.012
4/21/2023 16:05:04.420,0.176,-0.863,-0.059
4/21/2023 16:05:04.430,0.113,-0.734,-0.137
4/21/2023 16:05:04.440,0.035,-0.625,-0.195
4/21/2023 16:05:04.450,-0.047,-0.57,-0.227
4/21/2023 16:05:04.460,-0.133,-0.613,-0.246
4/21/2023 16:05:04.470,-0.211,-0.73,-0.246
4/21/2023 16:05:04.480,-0.246,-0.879,-0.168
4/21/2023 16:05:04.490,-0.238,-0.965,-0.113
4/21/2023 16:05:04.500,-0.199,-0.922,-0.094
4/21/2023 16:05:04.510,-0.133,-0.793,-0.074
4/21/2023 16:05:04.520,-0.078,-0.633,-0.059
4/21/2023 16:05:04.530,-0.008,-0.496,-0.035
4/21/2023 16:05:04.540,0.086,-0.418,-0.023
4/21/2023 16:05:04.550,0.18,-0.422,0.012
4/21/2023 16:05:04.560,0.234,-0.496,0.02
4/21/2023 16:05:04.570,0.246,-0.617,-0.023
4/21/2023 16:05:04.580,0.23,-0.766,-0.051
4/21/2023 16:05:04.590,0.18,-0.91,-0.063
4/21/2023 16:05:04.600,0.078,-1.02,-0.063
4/21/2023 16:05:04.610,-0.047,-1.094,-0.074
4/21/2023 16:05:04.620,-0.141,-1.145,-0.094
4/21/2023 16:05:04.630,-0.176,-1.234,-0.078
4/21/2023 16:05:04.640,-0.117,-1.328,-0.02
4/21/2023 16:05:04.650,0.023,-1.387,0.059
4/21/2023 16:05:04.660,0.207,-1.391,0.109
4/21/2023 16:05:04.670,0.418,-1.367,0.125
4/21/2023 16:05:04.680,0.629,-1.324,0.129
4/21/2023 16:05:04.690,0.766,-1.281,0.156
4/21/2023 16:05:04.700,0.75,-1.254,0.156
4/21/2023 16:05:04.710,0.598,-1.246,0.074
4/21/2023 16:05:04.720,0.332,-1.27,-0.066
4/21/2023 16:05:04.730,0.02,-1.316,-0.297
4/21/2023 16:05:04.740,-0.215,-1.371,-0.555
4/21/2023 16:05:04.750,-0.379,-1.438,-0.695
4/21/2023 16:05:04.760,-0.473,-1.488,-0.672
4/21/2023 16:05:04.770,-0.516,-1.449,-0.605
4/21/2023 16:05:04.780,-0.547,-1.297,-0.527
4/21/2023 16:05:04.790,-0.598,-1.078,-0.406
4/21/2023 16:05:04.800,-0.613,-0.879,-0.316
4/21/2023 16:05:04.810,-0.559,-0.785,-0.402
4/21/2023 16:05:04.820,-0.461,-0.84,-0.469
4/21/2023 16:05:04.830,-0.371,-1.121,-0.398
4/21/2023 16:05:04.840,-0.328,-1.566,-0.27
4/21/2023 16:05:04.850,-0.277,-1.836,-0.293
4/21/2023 16:05:04.860,-0.16,-1.863,-0.324
4/21/2023 16:05:04.870,-0.012,-1.719,-0.238
4/21/2023 16:05:04.880,0.074,-1.477,-0.168
4/21/2023 16:05:04.890,0.129,-1.188,-0.148
4/21/2023 16:05:04.900,0.188,-0.926,-0.098
4/21/2023 16:05:04.910,0.227,-0.73,-0.016
4/21/2023 16:05:04.920,0.219,-0.605,0.043
4/21/2023 16:05:04.930,0.191,-0.508,0.063
4/21/2023 16:05:04.940,0.168,-0.434,0.055
4/21/2023 16:05:04.950,0.145,-0.375,0.035
4/21/2023 16:05:04.960,0.117,-0.348,0.027
4/21/2023 16:05:04.970,0.078,-0.359,0.035
4/21/2023 16:05:04.980,0.031,-0.398,0.055
4/21/2023 16:05:04.990,-0.023,-0.461,0.051
4/21/2023 16:05:05.000,-0.094,-0.543,0.023
4/21/2023 16:05:05.010,-0.145,-0.637,0.02
4/21/2023 16:05:05.020,-0.156,-0.703,0.039
4/21/2023 16:05:05.030,-0.117,-0.742,0.078
4/21/2023 16:05:05.040,-0.039,-0.781,0.125
4/21/2023 16:05:05.050,0.055,-0.801,0.141
4/21/2023 16:05:05.060,0.125,-0.82,0.125
4/21/2023 16:05:05.070,0.164,-0.809,0.09
4/21/2023 16:05:05.080,0.191,-0.758,0.055
4/21/2023 16:05:05.090,0.266,-0.699,0.051
4/21/2023 16:05:05.100,0.375,-0.68,0.023
4/21/2023 16:05:05.110,0.449,-0.723,-0.047
4/21/2023 16:05:05.120,0.406,-0.867,-0.09
4/21/2023 16:05:05.130,0.266,-1.133,-0.043
4/21/2023 16:05:05.140,0.016,-1.559,0.113
4/21/2023 16:05:05.150,-0.258,-1.988,0.066
4/21/2023 16:05:05.160,-0.461,-2.203,-0.125
4/21/2023 16:05:05.170,-0.543,-2.137,-0.273
4/21/2023 16:05:05.180,-0.52,-1.922,-0.344
4/21/2023 16:05:05.190,-0.473,-1.703,-0.414
4/21/2023 16:05:05.200,-0.387,-1.555,-0.492
4/21/2023 16:05:05.210,-0.344,-1.512,-0.523
4/21/2023 16:05:05.220,-0.41,-1.512,-0.535
4/21/2023 16:05:05.230,-0.5,-1.492,-0.613
4/21/2023 16:05:05.240,-0.492,-1.406,-0.672
4/21/2023 16:05:05.250,-0.309,-1.281,-0.633
4/21/2023 16:05:05.260,-0.109,-1.105,-0.375
4/21/2023 16:05:05.270,-0.051,-0.906,-0.148
4/21/2023 16:05:05.280,-0.059,-0.711,-0.113
4/21/2023 16:05:05.290,-0.07,-0.574,-0.199
4/21/2023 16:05:05.300,-0.035,-0.551,-0.32
4/21/2023 16:05:05.310,0.07,-0.605,-0.363
4/21/2023 16:05:05.320,0.137,-0.715,-0.277
4/21/2023 16:05:05.330,0.145,-0.828,-0.129
4/21/2023 16:05:05.340,0.117,-0.891,-0.016
4/21/2023 16:05:05.350,0.047,-0.875,-0.023
4/21/2023 16:05:05.360,-0.023,-0.797,-0.129
4/21/2023 16:05:05.370,-0.102,-0.699,-0.23
4/21/2023 16:05:05.380,-0.168,-0.641,-0.27
4/21/2023 16:05:05.390,-0.215,-0.641,-0.234
4/21/2023 16:05:05.400,-0.203,-0.676,-0.125
4/21/2023 16:05:05.410,-0.137,-0.688,-0.051
4/21/2023 16:05:05.420,-0.055,-0.641,-0.031
4/21/2023 16:05:05.430,0.008,-0.559,-0.047
4/21/2023 16:05:05.440,0.035,-0.477,-0.051
4/21/2023 16:05:05.450,0.027,-0.434,-0.055
4/21/2023 16:05:05.460,0.023,-0.438,-0.078
4/21/2023 16:05:05.470,0.023,-0.508,-0.078
4/21/2023 16:05:05.480,0.016,-0.66,-0.09
4/21/2023 16:05:05.490,-0.027,-0.828,-0.113
4/21/2023 16:05:05.500,-0.102,-0.965,-0.152
4/21/2023 16:05:05.510,-0.148,-1.043,-0.172
4/21/2023 16:05:05.520,-0.176,-1.086,-0.164
4/21/2023 16:05:05.530,-0.16,-1.094,-0.133
4/21/2023 16:05:05.540,-0.164,-1.109,-0.082
4/21/2023 16:05:05.550,-0.195,-1.145,-0.066
4/21/2023 16:05:05.560,-0.16,-1.18,-0.051
4/21/2023 16:05:05.570,0,-1.188,-0.016
4/21/2023 16:05:05.580,0.258,-1.199,0.086
4/21/2023 16:05:05.590,0.496,-1.195,0.152
4/21/2023 16:05:05.600,0.668,-1.184,0.156
4/21/2023 16:05:05.610,0.793,-1.156,0.184
4/21/2023 16:05:05.620,0.863,-1.125,0.25
4/21/2023 16:05:05.630,0.805,-1.098,0.254
4/21/2023 16:05:05.640,0.605,-1.113,0.109
4/21/2023 16:05:05.650,0.324,-1.207,-0.105
4/21/2023 16:05:05.660,0.035,-1.359,-0.371
4/21/2023 16:05:05.670,-0.18,-1.516,-0.625
4/21/2023 16:05:05.680,-0.359,-1.641,-0.77
4/21/2023 16:05:05.690,-0.492,-1.668,-0.781
4/21/2023 16:05:05.700,-0.582,-1.598,-0.727
4/21/2023 16:05:05.710,-0.641,-1.422,-0.676
4/21/2023 16:05:05.720,-0.711,-1.203,-0.492
4/21/2023 16:05:05.730,-0.703,-1.027,-0.305
4/21/2023 16:05:05.740,-0.57,-0.898,-0.305
4/21/2023 16:05:05.750,-0.402,-0.832,-0.363
4/21/2023 16:05:05.760,-0.305,-0.945,-0.387
4/21/2023 16:05:05.770,-0.254,-1.238,-0.34
4/21/2023 16:05:05.780,-0.207,-1.609,-0.238
4/21/2023 16:05:05.790,-0.168,-1.781,-0.238
4/21/2023 16:05:05.800,-0.125,-1.703,-0.309
4/21/2023 16:05:05.810,-0.051,-1.48,-0.246
4/21/2023 16:05:05.820,0.027,-1.25,-0.164
4/21/2023 16:05:05.830,0.086,-1.043,-0.102
4/21/2023 16:05:05.840,0.105,-0.863,-0.063
4/21/2023 16:05:05.850,0.121,-0.715,-0.027
4/21/2023 16:05:05.860,0.148,-0.578,0.027
4/21/2023 16:05:05.870,0.191,-0.469,0.066
4/21/2023 16:05:05.880,0.215,-0.391,0.074
4/21/2023 16:05:05.890,0.227,-0.344,0.082
4/21/2023 16:05:05.900,0.238,-0.328,0.074
4/21/2023 16:05:05.910,0.242,-0.363,0.059
4/21/2023 16:05:05.920,0.223,-0.449,0.078
4/21/2023 16:05:05.930,0.172,-0.563,0.09
4/21/2023 16:05:05.940,0.098,-0.641,0.066
4/21/2023 16:05:05.950,0.02,-0.695,0.055
4/21/2023 16:05:05.960,-0.031,-0.734,0.094
4/21/2023 16:05:05.970,-0.043,-0.762,0.188
4/21/2023 16:05:05.980,-0.047,-0.742,0.23
4/21/2023 16:05:05.990,-0.039,-0.699,0.211
4/21/2023 16:05:06.000,-0.016,-0.668,0.152
4/21/2023 16:05:06.010,0.074,-0.668,0.113
4/21/2023 16:05:06.020,0.168,-0.676,0.09
4/21/2023 16:05:06.030,0.254,-0.695,0.07
4/21/2023 16:05:06.040,0.309,-0.715,0
4/21/2023 16:05:06.050,0.344,-0.777,-0.078
4/21/2023 16:05:06.060,0.332,-0.965,-0.043
4/21/2023 16:05:06.070,0.211,-1.277,0.078
4/21/2023 16:05:06.080,-0.027,-1.609,0.094
4/21/2023 16:05:06.090,-0.305,-1.922,-0.004
4/21/2023 16:05:06.100,-0.453,-2.141,-0.055
4/21/2023 16:05:06.110,-0.441,-2.16,0.02
4/21/2023 16:05:06.120,-0.301,-1.867,0.027
4/21/2023 16:05:06.130,-0.168,-1.457,-0.027
4/21/2023 16:05:06.140,-0.117,-1.094,-0.234
4/21/2023 16:05:06.150,-0.137,-0.93,-0.441
4/21/2023 16:05:06.160,-0.242,-0.969,-0.52
4/21/2023 16:05:06.170,-0.434,-1.137,-0.555
4/21/2023 16:05:06.180,-0.617,-1.344,-0.699
4/21/2023 16:05:06.190,-0.699,-1.609,-0.922
4/21/2023 16:05:06.200,-0.664,-1.883,-0.961
4/21/2023 16:05:06.210,-0.473,-2.012,-0.703
4/21/2023 16:05:06.220,-0.234,-1.832,-0.422
4/21/2023 16:05:06.230,-0.074,-1.438,-0.266
4/21/2023 16:05:06.240,0.023,-0.922,-0.211
4/21/2023 16:05:06.250,0.145,-0.406,-0.23
4/21/2023 16:05:06.260,0.281,-0.074,-0.223
4/21/2023 16:05:06.270,0.371,-0.012,-0.152
4/21/2023 16:05:06.280,0.305,-0.16,-0.078
4/21/2023 16:05:06.290,0.102,-0.426,-0.027
4/21/2023 16:05:06.300,-0.098,-0.727,-0.059
4/21/2023 16:05:06.310,-0.191,-0.895,-0.188
4/21/2023 16:05:06.320,-0.266,-0.977,-0.27
4/21/2023 16:05:06.330,-0.352,-1.035,-0.293
4/21/2023 16:05:06.340,-0.406,-1.063,-0.273
4/21/2023 16:05:06.350,-0.383,-1.004,-0.23
4/21/2023 16:05:06.360,-0.309,-0.875,-0.184
4/21/2023 16:05:06.370,-0.191,-0.691,-0.145
4/21/2023 16:05:06.380,-0.074,-0.5,-0.09
4/21/2023 16:05:06.390,0.031,-0.359,-0.043
4/21/2023 16:05:06.400,0.145,-0.332,-0.016
4/21/2023 16:05:06.410,0.254,-0.41,0
4/21/2023 16:05:06.420,0.32,-0.574,0.004
4/21/2023 16:05:06.430,0.344,-0.781,0.008
4/21/2023 16:05:06.440,0.309,-0.938,-0.023
4/21/2023 16:05:06.450,0.227,-0.984,-0.074
4/21/2023 16:05:06.460,0.125,-0.957,-0.094
4/21/2023 16:05:06.470,-0.016,-0.926,-0.066
4/21/2023 16:05:06.480,-0.191,-0.949,-0.051
4/21/2023 16:05:06.490,-0.285,-1.043,-0.043
4/21/2023 16:05:06.500,-0.211,-1.164,0.039
4/21/2023 16:05:06.510,-0.008,-1.238,0.145
4/21/2023 16:05:06.520,0.188,-1.246,0.172
4/21/2023 16:05:06.530,0.387,-1.207,0.156
4/21/2023 16:05:06.540,0.633,-1.16,0.195
4/21/2023 16:05:06.550,0.848,-1.129,0.281
4/21/2023 16:05:06.560,0.922,-1.113,0.313
4/21/2023 16:05:06.570,0.809,-1.129,0.223
4/21/2023 16:05:06.580,0.539,-1.18,0.055
4/21/2023 16:05:06.590,0.203,-1.262,-0.16
4/21/2023 16:05:06.600,-0.133,-1.363,-0.449
4/21/2023 16:05:06.610,-0.383,-1.469,-0.723
4/21/2023 16:05:06.620,-0.551,-1.59,-0.824
4/21/2023 16:05:06.630,-0.641,-1.672,-0.766
4/21/2023 16:05:06.640,-0.703,-1.648,-0.668
4/21/2023 16:05:06.650,-0.734,-1.559,-0.5
4/21/2023 16:05:06.660,-0.66,-1.371,-0.359
4/21/2023 16:05:06.670,-0.52,-1.109,-0.336
4/21/2023 16:05:06.680,-0.406,-0.883,-0.426
4/21/2023 16:05:06.690,-0.273,-0.836,-0.473
4/21/2023 16:05:06.700,-0.137,-1.02,-0.379
4/21/2023 16:05:06.710,-0.059,-1.355,-0.211
4/21/2023 16:05:06.720,-0.035,-1.672,-0.105
4/21/2023 16:05:06.730,-0.023,-1.832,-0.117
4/21/2023 16:05:06.740,0.008,-1.727,-0.184
4/21/2023 16:05:06.750,0.074,-1.461,-0.188
4/21/2023 16:05:06.760,0.148,-1.172,-0.129
4/21/2023 16:05:06.770,0.199,-0.934,-0.059
4/21/2023 16:05:06.780,0.207,-0.73,0
4/21/2023 16:05:06.790,0.199,-0.566,0.039
4/21/2023 16:05:06.800,0.199,-0.422,0.055
4/21/2023 16:05:06.810,0.211,-0.305,0.055
4/21/2023 16:05:06.820,0.215,-0.238,0.055
4/21/2023 16:05:06.830,0.211,-0.23,0.035
4/21/2023 16:05:06.840,0.18,-0.273,0.008
4/21/2023 16:05:06.850,0.113,-0.352,-0.035
4/21/2023 16:05:06.860,0.031,-0.512,0.012
4/21/2023 16:05:06.870,-0.066,-0.727,0.098
4/21/2023 16:05:06.880,-0.145,-0.832,0.117
4/21/2023 16:05:06.890,-0.184,-0.805,0.094
4/21/2023 16:05:06.900,-0.184,-0.727,0.086
4/21/2023 16:05:06.910,-0.109,-0.688,0.129
4/21/2023 16:05:06.920,0.008,-0.703,0.168
4/21/2023 16:05:06.930,0.129,-0.742,0.129
4/21/2023 16:05:06.940,0.227,-0.793,0.055
4/21/2023 16:05:06.950,0.277,-0.852,0.066
4/21/2023 16:05:06.960,0.266,-0.895,0.098
4/21/2023 16:05:06.970,0.227,-0.891,0.066
4/21/2023 16:05:06.980,0.195,-0.879,0
4/21/2023 16:05:06.990,0.152,-0.938,-0.012
4/21/2023 16:05:07.000,0.051,-1.121,0.066
4/21/2023 16:05:07.010,-0.074,-1.414,0.145
4/21/2023 16:05:07.020,-0.234,-1.75,0.172
4/21/2023 16:05:07.030,-0.34,-2.031,0.141
4/21/2023 16:05:07.040,-0.324,-2.109,0.07
4/21/2023 16:05:07.050,-0.262,-1.922,-0.078
4/21/2023 16:05:07.060,-0.184,-1.621,-0.25
4/21/2023 16:05:07.070,-0.133,-1.371,-0.398
4/21/2023 16:05:07.080,-0.184,-1.297,-0.5
4/21/2023 16:05:07.090,-0.238,-1.324,-0.504
4/21/2023 16:05:07.100,-0.355,-1.395,-0.48
4/21/2023 16:05:07.110,-0.469,-1.453,-0.574
4/21/2023 16:05:07.120,-0.457,-1.477,-0.699
4/21/2023 16:05:07.130,-0.395,-1.441,-0.617
4/21/2023 16:05:07.140,-0.301,-1.305,-0.348
4/21/2023 16:05:07.150,-0.227,-1.09,-0.145
4/21/2023 16:05:07.160,-0.176,-0.859,-0.145
4/21/2023 16:05:07.170,-0.152,-0.688,-0.266
4/21/2023 16:05:07.180,-0.082,-0.602,-0.371
4/21/2023 16:05:07.190,0.055,-0.625,-0.305
4/21/2023 16:05:07.200,0.168,-0.75,-0.117
4/21/2023 16:05:07.210,0.188,-0.859,0.012
4/21/2023 16:05:07.220,0.117,-0.871,-0.012
4/21/2023 16:05:07.230,0.035,-0.785,-0.133
4/21/2023 16:05:07.240,-0.039,-0.699,-0.23
4/21/2023 16:05:07.250,-0.141,-0.668,-0.281
4/21/2023 16:05:07.260,-0.25,-0.738,-0.277
4/21/2023 16:05:07.270,-0.324,-0.883,-0.199
4/21/2023 16:05:07.280,-0.301,-0.969,-0.164
4/21/2023 16:05:07.290,-0.223,-0.926,-0.148
4/21/2023 16:05:07.300,-0.129,-0.793,-0.129
4/21/2023 16:05:07.310,-0.051,-0.633,-0.094
4/21/2023 16:05:07.320,0.008,-0.488,-0.082
4/21/2023 16:05:07.330,0.078,-0.391,-0.086
4/21/2023 16:05:07.340,0.137,-0.375,-0.094
4/21/2023 16:05:07.350,0.184,-0.461,-0.063
4/21/2023 16:05:07.360,0.184,-0.641,-0.023
4/21/2023 16:05:07.370,0.117,-0.824,-0.027
4/21/2023 16:05:07.380,0.043,-0.941,-0.082
4/21/2023 16:05:07.390,-0.031,-0.98,-0.098
4/21/2023 16:05:07.400,-0.121,-0.965,-0.094
4/21/2023 16:05:07.410,-0.184,-0.922,-0.078
4/21/2023 16:05:07.420,-0.176,-0.895,-0.031
4/21/2023 16:05:07.430,-0.09,-0.941,0.082
4/21/2023 16:05:07.440,0.047,-1.043,0.215
4/21/2023 16:05:07.450,0.191,-1.125,0.246
4/21/2023 16:05:07.460,0.371,-1.172,0.211
4/21/2023 16:05:07.470,0.605,-1.176,0.219
4/21/2023 16:05:07.480,0.816,-1.164,0.25
4/21/2023 16:05:07.490,0.918,-1.137,0.25
4/21/2023 16:05:07.500,0.887,-1.125,0.238
4/21/2023 16:05:07.510,0.711,-1.184,0.172
4/21/2023 16:05:07.520,0.422,-1.305,0.023
4/21/2023 16:05:07.530,0.133,-1.453,-0.207
4/21/2023 16:05:07.540,-0.102,-1.566,-0.48
4/21/2023 16:05:07.550,-0.27,-1.652,-0.672
4/21/2023 16:05:07.560,-0.402,-1.688,-0.73
4/21/2023 16:05:07.570,-0.535,-1.652,-0.695
4/21/2023 16:05:07.580,-0.637,-1.527,-0.684
4/21/2023 16:05:07.590,-0.707,-1.293,-0.563
4/21/2023 16:05:07.600,-0.684,-1.063,-0.336
4/21/2023 16:05:07.610,-0.547,-0.863,-0.27
4/21/2023 16:05:07.620,-0.367,-0.73,-0.375
4/21/2023 16:05:07.630,-0.246,-0.785,-0.445
4/21/2023 16:05:07.640,-0.207,-1.082,-0.379
4/21/2023 16:05:07.650,-0.164,-1.551,-0.227
4/21/2023 16:05:07.660,-0.109,-1.844,-0.184
4/21/2023 16:05:07.670,-0.059,-1.781,-0.27
4/21/2023 16:05:07.680,0.008,-1.527,-0.266
4/21/2023 16:05:07.690,0.09,-1.262,-0.18
4/21/2023 16:05:07.700,0.141,-1.063,-0.09
4/21/2023 16:05:07.710,0.137,-0.914,-0.039
4/21/2023 16:05:07.720,0.113,-0.797,-0.023
4/21/2023 16:05:07.730,0.102,-0.688,-0.016
4/21/2023 16:05:07.740,0.094,-0.594,0.004
4/21/2023 16:05:07.750,0.09,-0.512,0.031
4/21/2023 16:05:07.760,0.105,-0.453,0.047
4/21/2023 16:05:07.770,0.117,-0.402,0.07
4/21/2023 16:05:07.780,0.102,-0.375,0.078
4/21/2023 16:05:07.790,0.066,-0.395,0.066
4/21/2023 16:05:07.800,0.008,-0.449,0.043
4/21/2023 16:05:07.810,-0.063,-0.527,0.055
4/21/2023 16:05:07.820,-0.137,-0.637,0.086
4/21/2023 16:05:07.830,-0.164,-0.73,0.098
4/21/2023 16:05:07.840,-0.137,-0.766,0.074
4/21/2023 16:05:07.850,-0.063,-0.762,0.074
4/21/2023 16:05:07.860,0.023,-0.777,0.129
4/21/2023 16:05:07.870,0.102,-0.777,0.172
4/21/2023 16:05:07.880,0.164,-0.723,0.109
4/21/2023 16:05:07.890,0.238,-0.672,0.039
4/21/2023 16:05:07.900,0.297,-0.676,0.066
4/21/2023 16:05:07.910,0.313,-0.766,0.121
4/21/2023 16:05:07.920,0.293,-0.891,0.082
4/21/2023 16:05:07.930,0.242,-1.055,0.027
4/21/2023 16:05:07.940,0.133,-1.301,0.035
4/21/2023 16:05:07.950,-0.035,-1.59,0.078
4/21/2023 16:05:07.960,-0.223,-1.859,0.09
4/21/2023 16:05:07.970,-0.383,-2.039,0.055
4/21/2023 16:05:07.980,-0.41,-2.082,0.059
4/21/2023 16:05:07.990,-0.277,-1.926,0.117
4/21/2023 16:05:08.000,-0.09,-1.594,0.078
4/21/2023 16:05:08.010,0.086,-1.219,0.027
4/21/2023 16:05:08.020,0.113,-0.953,-0.137
4/21/2023 16:05:08.030,0,-0.797,-0.352
4/21/2023 16:05:08.040,-0.191,-0.762,-0.574
4/21/2023 16:05:08.050,-0.434,-0.895,-0.715
4/21/2023 16:05:08.060,-0.648,-1.156,-0.875
4/21/2023 16:05:08.070,-0.762,-1.551,-0.957
4/21/2023 16:05:08.080,-0.781,-1.957,-0.789
4/21/2023 16:05:08.090,-0.547,-1.996,-0.543
4/21/2023 16:05:08.100,-0.266,-1.73,-0.301
4/21/2023 16:05:08.110,-0.055,-1.367,-0.211
4/21/2023 16:05:08.120,0.066,-0.941,-0.305
4/21/2023 16:05:08.130,0.172,-0.57,-0.344
4/21/2023 16:05:08.140,0.297,-0.324,-0.211
4/21/2023 16:05:08.150,0.371,-0.23,-0.07
4/21/2023 16:05:08.160,0.324,-0.238,0
4/21/2023 16:05:08.170,0.168,-0.32,-0.051
4/21/2023 16:05:08.180,0.004,-0.461,-0.145
4/21/2023 16:05:08.190,-0.129,-0.66,-0.195
4/21/2023 16:05:08.200,-0.254,-0.918,-0.191
4/21/2023 16:05:08.210,-0.34,-1.152,-0.195
4/21/2023 16:05:08.220,-0.367,-1.234,-0.238
4/21/2023 16:05:08.230,-0.34,-1.168,-0.246
4/21/2023 16:05:08.240,-0.273,-1.02,-0.199
4/21/2023 16:05:08.250,-0.145,-0.816,-0.125
4/21/2023 16:05:08.260,-0.043,-0.602,-0.043
4/21/2023 16:05:08.270,0.035,-0.406,-0.031
4/21/2023 16:05:08.280,0.082,-0.273,-0.047
4/21/2023 16:05:08.290,0.16,-0.223,-0.07
4/21/2023 16:05:08.300,0.242,-0.293,-0.055
4/21/2023 16:05:08.310,0.254,-0.52,0.008
4/21/2023 16:05:08.320,0.176,-0.824,0.023
4/21/2023 16:05:08.330,0.055,-1.059,-0.043
4/21/2023 16:05:08.340,-0.051,-1.172,-0.098
4/21/2023 16:05:08.350,-0.121,-1.191,-0.102
4/21/2023 16:05:08.360,-0.145,-1.18,-0.043
4/21/2023 16:05:08.370,-0.121,-1.145,0.039
4/21/2023 16:05:08.380,-0.031,-1.105,0.109
4/21/2023 16:05:08.390,0.121,-1.078,0.156
4/21/2023 16:05:08.400,0.32,-1.105,0.168
4/21/2023 16:05:08.410,0.535,-1.148,0.176
4/21/2023 16:05:08.420,0.707,-1.188,0.184
4/21/2023 16:05:08.430,0.781,-1.227,0.148
4/21/2023 16:05:08.440,0.715,-1.258,0.07
4/21/2023 16:05:08.450,0.52,-1.32,-0.094
4/21/2023 16:05:08.460,0.246,-1.426,-0.34
4/21/2023 16:05:08.470,0.004,-1.574,-0.598
4/21/2023 16:05:08.480,-0.168,-1.695,-0.719
4/21/2023 16:05:08.490,-0.34,-1.711,-0.727
4/21/2023 16:05:08.500,-0.563,-1.676,-0.676
4/21/2023 16:05:08.510,-0.727,-1.547,-0.617
4/21/2023 16:05:08.520,-0.789,-1.273,-0.484
4/21/2023 16:05:08.530,-0.797,-0.992,-0.242
4/21/2023 16:05:08.540,-0.711,-0.793,-0.234
4/21/2023 16:05:08.550,-0.52,-0.719,-0.398
4/21/2023 16:05:08.560,-0.305,-0.852,-0.434
4/21/2023 16:05:08.570,-0.168,-1.211,-0.348
4/21/2023 16:05:08.580,-0.074,-1.688,-0.246
4/21/2023 16:05:08.590,-0.004,-1.91,-0.273
4/21/2023 16:05:08.600,0.078,-1.801,-0.32
4/21/2023 16:05:08.610,0.172,-1.5,-0.234
4/21/2023 16:05:08.620,0.254,-1.168,-0.129
4/21/2023 16:05:08.630,0.293,-0.902,-0.051
4/21/2023 16:05:08.640,0.273,-0.738,-0.004
4/21/2023 16:05:08.650,0.227,-0.637,0.016
4/21/2023 16:05:08.660,0.172,-0.559,0.023
4/21/2023 16:05:08.670,0.109,-0.496,0
4/21/2023 16:05:08.680,0.043,-0.434,-0.023
4/21/2023 16:05:08.690,-0.012,-0.387,-0.027
4/21/2023 16:05:08.700,-0.055,-0.355,-0.004
4/21/2023 16:05:08.710,-0.102,-0.352,0.004
4/21/2023 16:05:08.720,-0.133,-0.371,0.012
4/21/2023 16:05:08.730,-0.148,-0.41,0.035
4/21/2023 16:05:08.740,-0.16,-0.484,0.074
4/21/2023 16:05:08.750,-0.141,-0.563,0.125
4/21/2023 16:05:08.760,-0.078,-0.641,0.176
4/21/2023 16:05:08.770,0.039,-0.719,0.199
4/21/2023 16:05:08.780,0.148,-0.793,0.191
4/21/2023 16:05:08.790,0.184,-0.867,0.129
4/21/2023 16:05:08.800,0.176,-0.895,0
4/21/2023 16:05:08.810,0.203,-0.879,-0.043
4/21/2023 16:05:08.820,0.258,-0.879,0.039
4/21/2023 16:05:08.830,0.316,-0.906,0.098
4/21/2023 16:05:08.840,0.297,-0.941,0.023
4/21/2023 16:05:08.850,0.223,-1.027,-0.086
4/21/2023 16:05:08.860,0.129,-1.207,-0.039
4/21/2023 16:05:08.870,0.02,-1.488,0.121
4/21/2023 16:05:08.880,-0.145,-1.773,0.184
4/21/2023 16:05:08.890,-0.277,-1.945,0.129
4/21/2023 16:05:08.900,-0.336,-1.949,0.039
4/21/2023 16:05:08.910,-0.344,-1.746,-0.07
4/21/2023 16:05:08.920,-0.297,-1.453,-0.207
4/21/2023 16:05:08.930,-0.27,-1.246,-0.375
4/21/2023 16:05:08.940,-0.258,-1.152,-0.52
4/21/2023 16:05:08.950,-0.313,-1.164,-0.625
4/21/2023 16:05:08.960,-0.434,-1.258,-0.75
4/21/2023 16:05:08.970,-0.512,-1.41,-0.855
4/21/2023 16:05:08.980,-0.5,-1.594,-0.738
4/21/2023 16:05:08.990,-0.375,-1.703,-0.469
4/21/2023 16:05:09.000,-0.195,-1.586,-0.289
4/21/2023 16:05:09.010,-0.105,-1.293,-0.234
4/21/2023 16:05:09.020,-0.09,-0.961,-0.254
4/21/2023 16:05:09.030,-0.031,-0.672,-0.297
4/21/2023 16:05:09.040,0.129,-0.492,-0.27
4/21/2023 16:05:09.050,0.258,-0.48,-0.145
4/21/2023 16:05:09.060,0.227,-0.57,-0.055
4/21/2023 16:05:09.070,0.086,-0.68,-0.07
4/21/2023 16:05:09.080,-0.051,-0.762,-0.137
4/21/2023 16:05:09.090,-0.105,-0.801,-0.195
4/21/2023 16:05:09.100,-0.137,-0.805,-0.219
4/21/2023 16:05:09.110,-0.234,-0.828,-0.281
4/21/2023 16:05:09.120,-0.344,-0.867,-0.313
4/21/2023 16:05:09.130,-0.379,-0.898,-0.258
4/21/2023 16:05:09.140,-0.313,-0.867,-0.18
4/21/2023 16:05:09.150,-0.215,-0.742,-0.113
4/21/2023 16:05:09.160,-0.125,-0.574,-0.074
4/21/2023 16:05:09.170,-0.031,-0.391,-0.074
4/21/2023 16:05:09.180,0.055,-0.281,-0.082
4/21/2023 16:05:09.190,0.16,-0.301,-0.07
4/21/2023 16:05:09.200,0.246,-0.449,-0.051
4/21/2023 16:05:09.210,0.27,-0.699,-0.043
4/21/2023 16:05:09.220,0.215,-0.918,-0.098
4/21/2023 16:05:09.230,0.133,-1.035,-0.172
4/21/2023 16:05:09.240,0.043,-1.055,-0.211
4/21/2023 16:05:09.250,-0.023,-1.039,-0.16
4/21/2023 16:05:09.260,-0.082,-1.012,-0.059
4/21/2023 16:05:09.270,-0.148,-1.004,0.004
4/21/2023 16:05:09.280,-0.145,-1.02,0.055
4/21/2023 16:05:09.290,-0.039,-1.055,0.133
4/21/2023 16:05:09.300,0.094,-1.09,0.191
4/21/2023 16:05:09.310,0.254,-1.133,0.191
4/21/2023 16:05:09.320,0.422,-1.164,0.18
4/21/2023 16:05:09.330,0.598,-1.191,0.176
4/21/2023 16:05:09.340,0.699,-1.195,0.168
4/21/2023 16:05:09.350,0.68,-1.191,0.133
4/21/2023 16:05:09.360,0.496,-1.215,-0.004
4/21/2023 16:05:09.370,0.203,-1.289,-0.266
4/21/2023 16:05:09.380,-0.078,-1.402,-0.566
4/21/2023 16:05:09.390,-0.301,-1.531,-0.766
4/21/2023 16:05:09.400,-0.484,-1.648,-0.793
4/21/2023 16:05:09.410,-0.621,-1.691,-0.727
4/21/2023 16:05:09.420,-0.719,-1.629,-0.652
4/21/2023 16:05:09.430,-0.781,-1.488,-0.508
4/21/2023 16:05:09.440,-0.762,-1.313,-0.375
4/21/2023 16:05:09.450,-0.66,-1.125,-0.367
4/21/2023 16:05:09.460,-0.52,-0.965,-0.379
4/21/2023 16:05:09.470,-0.348,-0.926,-0.371
4/21/2023 16:05:09.480,-0.176,-1.035,-0.316
4/21/2023 16:05:09.490,-0.07,-1.242,-0.277
4/21/2023 16:05:09.500,-0.043,-1.496,-0.242
4/21/2023 16:05:09.510,0,-1.672,-0.207
4/21/2023 16:05:09.520,0.051,-1.629,-0.207
4/21/2023 16:05:09.530,0.125,-1.383,-0.18
4/21/2023 16:05:09.540,0.207,-1.105,-0.109
4/21/2023 16:05:09.550,0.227,-0.879,-0.043
4/21/2023 16:05:09.560,0.195,-0.711,-0.008
4/21/2023 16:05:09.570,0.152,-0.578,0.008
4/21/2023 16:05:09.580,0.113,-0.484,0.02
4/21/2023 16:05:09.590,0.078,-0.422,0.023
4/21/2023 16:05:09.600,0.059,-0.398,0.004
4/21/2023 16:05:09.610,0.059,-0.422,0.016
4/21/2023 16:05:09.620,0.063,-0.484,0.07
4/21/2023 16:05:09.630,0.047,-0.586,0.113
4/21/2023 16:05:09.640,0.008,-0.656,0.07
4/21/2023 16:05:09.650,-0.035,-0.688,0.008
4/21/2023 16:05:09.660,-0.055,-0.695,0
4/21/2023 16:05:09.670,-0.035,-0.73,0.078
4/21/2023 16:05:09.680,0.016,-0.766,0.172
4/21/2023 16:05:09.690,0.094,-0.773,0.25
4/21/2023 16:05:09.700,0.16,-0.75,0.258
4/21/2023 16:05:09.710,0.207,-0.715,0.211
4/21/2023 16:05:09.720,0.238,-0.672,0.168
4/21/2023 16:05:09.730,0.273,-0.656,0.102
4/21/2023 16:05:09.740,0.293,-0.684,0.07
4/21/2023 16:05:09.750,0.297,-0.762,0.078
4/21/2023 16:05:09.760,0.254,-0.859,0.043
4/21/2023 16:05:09.770,0.18,-0.953,-0.059
4/21/2023 16:05:09.780,0.109,-1.082,-0.047
4/21/2023 16:05:09.790,0.004,-1.289,0.074
4/21/2023 16:05:09.800,-0.184,-1.52,0.133
4/21/2023 16:05:09.810,-0.383,-1.73,0.094
4/21/2023 16:05:09.820,-0.469,-1.898,0.082
4/21/2023 16:05:09.830,-0.414,-1.879,0.012
4/21/2023 16:05:09.840,-0.316,-1.688,-0.086
4/21/2023 16:05:09.850,-0.238,-1.434,-0.254
4/21/2023 16:05:09.860,-0.199,-1.293,-0.461
4/21/2023 16:05:09.870,-0.18,-1.285,-0.582
4/21/2023 16:05:09.880,-0.277,-1.395,-0.629
4/21/2023 16:05:09.890,-0.418,-1.551,-0.715
4/21/2023 16:05:09.900,-0.477,-1.672,-0.727
4/21/2023 16:05:09.910,-0.418,-1.699,-0.613
4/21/2023 16:05:09.920,-0.25,-1.559,-0.445
4/21/2023 16:05:09.930,-0.121,-1.336,-0.316
4/21/2023 16:05:09.940,-0.098,-1.07,-0.266
4/21/2023 16:05:09.950,-0.078,-0.82,-0.262
4/21/2023 16:05:09.960,-0.02,-0.664,-0.289
4/21/2023 16:05:09.970,0.074,-0.617,-0.254
4/21/2023 16:05:09.980,0.129,-0.668,-0.148
4/21/2023 16:05:09.990,0.07,-0.738,-0.098
4/21/2023 16:05:10.000,-0.047,-0.773,-0.137
4/21/2023 16:05:10.010,-0.121,-0.758,-0.184
4/21/2023 16:05:10.020,-0.164,-0.711,-0.203
4/21/2023 16:05:10.030,-0.207,-0.68,-0.207
4/21/2023 16:05:10.040,-0.277,-0.691,-0.238
4/21/2023 16:05:10.050,-0.348,-0.734,-0.258
4/21/2023 16:05:10.060,-0.355,-0.781,-0.215
4/21/2023 16:05:10.070,-0.32,-0.789,-0.168
4/21/2023 16:05:10.080,-0.258,-0.742,-0.141
4/21/2023 16:05:10.090,-0.184,-0.66,-0.117
4/21/2023 16:05:10.100,-0.102,-0.559,-0.098
4/21/2023 16:05:10.110,-0.035,-0.5,-0.082
4/21/2023 16:05:10.120,0.023,-0.523,-0.051
4/21/2023 16:05:10.130,0.105,-0.625,-0.031
4/21/2023 16:05:10.140,0.184,-0.758,-0.023
4/21/2023 16:05:10.150,0.25,-0.855,-0.059
4/21/2023 16:05:10.160,0.277,-0.895,-0.105
4/21/2023 16:05:10.170,0.27,-0.871,-0.105
4/21/2023 16:05:10.180,0.203,-0.82,-0.086
4/21/2023 16:05:10.190,0.07,-0.813,-0.09
4/21/2023 16:05:10.200,-0.047,-0.859,-0.082
4/21/2023 16:05:10.210,-0.098,-0.992,-0.027
4/21/2023 16:05:10.220,-0.074,-1.148,0.07
4/21/2023 16:05:10.230,-0.012,-1.266,0.137
4/21/2023 16:05:10.240,0.078,-1.27,0.164
4/21/2023 16:05:10.250,0.188,-1.215,0.16
4/21/2023 16:05:10.260,0.324,-1.18,0.164
4/21/2023 16:05:10.270,0.484,-1.172,0.203
4/21/2023 16:05:10.280,0.66,-1.148,0.27
4/21/2023 16:05:10.290,0.801,-1.105,0.309
4/21/2023 16:05:10.300,0.801,-1.09,0.305
4/21/2023 16:05:10.310,0.621,-1.129,0.172
4/21/2023 16:05:10.320,0.355,-1.219,-0.043
4/21/2023 16:05:10.330,0.078,-1.375,-0.242
4/21/2023 16:05:10.340,-0.152,-1.535,-0.434
4/21/2023 16:05:10.350,-0.316,-1.629,-0.594
4/21/2023 16:05:10.360,-0.406,-1.621,-0.715
4/21/2023 16:05:10.370,-0.453,-1.551,-0.664
4/21/2023 16:05:10.380,-0.52,-1.457,-0.551
4/21/2023 16:05:10.390,-0.566,-1.336,-0.469
4/21/2023 16:05:10.400,-0.516,-1.152,-0.387
4/21/2023 16:05:10.410,-0.406,-0.945,-0.34
4/21/2023 16:05:10.420,-0.305,-0.789,-0.355
4/21/2023 16:05:10.430,-0.219,-0.758,-0.359
4/21/2023 16:05:10.440,-0.18,-0.902,-0.293
4/21/2023 16:05:10.450,-0.184,-1.148,-0.23
4/21/2023 16:05:10.460,-0.18,-1.391,-0.172
4/21/2023 16:05:10.470,-0.152,-1.563,-0.145
4/21/2023 16:05:10.480,-0.09,-1.563,-0.172
4/21/2023 16:05:10.490,-0.012,-1.379,-0.191
4/21/2023 16:05:10.500,0.078,-1.141,-0.152
4/21/2023 16:05:10.510,0.152,-0.918,-0.094
4/21/2023 16:05:10.520,0.191,-0.723,-0.066
4/21/2023 16:05:10.530,0.199,-0.586,-0.035
4/21/2023 16:05:10.540,0.195,-0.496,0.023
4/21/2023 16:05:10.550,0.176,-0.453,0.082
4/21/2023 16:05:10.560,0.148,-0.449,0.09
4/21/2023 16:05:10.570,0.117,-0.473,0.059
4/21/2023 16:05:10.580,0.109,-0.516,0.047
4/21/2023 16:05:10.590,0.098,-0.613,0.078
4/21/2023 16:05:10.600,0.074,-0.73,0.152
4/21/2023 16:05:10.610,0.047,-0.789,0.176
4/21/2023 16:05:10.620,0.031,-0.785,0.16
4/21/2023 16:05:10.630,0.047,-0.777,0.148
4/21/2023 16:05:10.640,0.109,-0.77,0.137
4/21/2023 16:05:10.650,0.18,-0.789,0.18
4/21/2023 16:05:10.660,0.23,-0.809,0.176
4/21/2023 16:05:10.670,0.262,-0.82,0.117
4/21/2023 16:05:10.680,0.27,-0.832,0.039
4/21/2023 16:05:10.690,0.273,-0.891,0.039
4/21/2023 16:05:10.700,0.25,-0.977,0.082
4/21/2023 16:05:10.710,0.211,-1.02,0.07
4/21/2023 16:05:10.720,0.141,-1.023,0.008
4/21/2023 16:05:10.730,0.055,-1.051,-0.016
4/21/2023 16:05:10.740,-0.035,-1.145,0.016
4/21/2023 16:05:10.750,-0.113,-1.328,0.09
4/21/2023 16:05:10.760,-0.199,-1.547,0.121
4/21/2023 16:05:10.770,-0.273,-1.746,0.094
4/21/2023 16:05:10.780,-0.316,-1.863,0.043
4/21/2023 16:05:10.790,-0.336,-1.809,-0.086
4/21/2023 16:05:10.800,-0.313,-1.641,-0.285
4/21/2023 16:05:10.810,-0.254,-1.484,-0.453
4/21/2023 16:05:10.820,-0.18,-1.426,-0.496
4/21/2023 16:05:10.830,-0.145,-1.477,-0.395
4/21/2023 16:05:10.840,-0.176,-1.469,-0.363
4/21/2023 16:05:10.850,-0.258,-1.34,-0.418
4/21/2023 16:05:10.860,-0.34,-1.176,-0.566
4/21/2023 16:05:10.870,-0.359,-1.031,-0.621
4/21/2023 16:05:10.880,-0.332,-0.914,-0.508
4/21/2023 16:05:10.890,-0.285,-0.84,-0.367
4/21/2023 16:05:10.900,-0.238,-0.805,-0.266
4/21/2023 16:05:10.910,-0.176,-0.805,-0.234
4/21/2023 16:05:10.920,-0.09,-0.801,-0.238
4/21/2023 16:05:10.930,0.043,-0.766,-0.223
4/21/2023 16:05:10.940,0.164,-0.719,-0.168
4/21/2023 16:05:10.950,0.215,-0.676,-0.102
4/21/2023 16:05:10.960,0.156,-0.652,-0.066
4/21/2023 16:05:10.970,0.027,-0.648,-0.082
4/21/2023 16:05:10.980,-0.125,-0.676,-0.129
4/21/2023 16:05:10.990,-0.25,-0.734,-0.168
4/21/2023 16:05:11.000,-0.355,-0.836,-0.18
4/21/2023 16:05:11.010,-0.371,-0.953,-0.164
4/21/2023 16:05:11.020,-0.344,-1.016,-0.156
4/21/2023 16:05:11.030,-0.293,-1.012,-0.145
4/21/2023 16:05:11.040,-0.211,-0.922,-0.137
4/21/2023 16:05:11.050,-0.098,-0.777,-0.109
4/21/2023 16:05:11.060,0.016,-0.621,-0.063
4/21/2023 16:05:11.070,0.117,-0.48,-0.055
4/21/2023 16:05:11.080,0.18,-0.402,-0.043
4/21/2023 16:05:11.090,0.23,-0.406,-0.031
4/21/2023 16:05:11.100,0.258,-0.527,0.008
4/21/2023 16:05:11.110,0.258,-0.707,-0.008
4/21/2023 16:05:11.120,0.211,-0.863,-0.047
4/21/2023 16:05:11.130,0.129,-0.984,-0.109
4/21/2023 16:05:11.140,0.047,-1.07,-0.133
4/21/2023 16:05:11.150,-0.02,-1.148,-0.098
4/21/2023 16:05:11.160,-0.086,-1.188,-0.039
4/21/2023 16:05:11.170,-0.125,-1.195,-0.004
4/21/2023 16:05:11.180,-0.133,-1.172,0.043
4/21/2023 16:05:11.190,-0.035,-1.125,0.086
4/21/2023 16:05:11.200,0.148,-1.117,0.152
4/21/2023 16:05:11.210,0.367,-1.129,0.238
4/21/2023 16:05:11.220,0.574,-1.113,0.27
4/21/2023 16:05:11.230,0.762,-1.055,0.277
4/21/2023 16:05:11.240,0.879,-1.004,0.281
4/21/2023 16:05:11.250,0.875,-1.035,0.234
4/21/2023 16:05:11.260,0.719,-1.141,0.09
4/21/2023 16:05:11.270,0.426,-1.285,-0.152
4/21/2023 16:05:11.280,0.063,-1.445,-0.488
4/21/2023 16:05:11.290,-0.246,-1.609,-0.758
4/21/2023 16:05:11.300,-0.496,-1.781,-0.855
4/21/2023 16:05:11.310,-0.66,-1.852,-0.793
4/21/2023 16:05:11.320,-0.75,-1.789,-0.719
4/21/2023 16:05:11.330,-0.789,-1.598,-0.645
4/21/2023 16:05:11.340,-0.77,-1.316,-0.426
4/21/2023 16:05:11.350,-0.652,-1.059,-0.266
4/21/2023 16:05:11.360,-0.457,-0.863,-0.277
4/21/2023 16:05:11.370,-0.258,-0.738,-0.328
4/21/2023 16:05:11.380,-0.113,-0.781,-0.316
4/21/2023 16:05:11.390,-0.051,-0.992,-0.258
4/21/2023 16:05:11.400,-0.035,-1.293,-0.188
4/21/2023 16:05:11.410,-0.023,-1.598,-0.105
4/21/2023 16:05:11.420,-0.008,-1.672,-0.141
4/21/2023 16:05:11.430,0.008,-1.477,-0.227
4/21/2023 16:05:11.440,0.094,-1.18,-0.184
4/21/2023 16:05:11.450,0.188,-0.926,-0.094
4/21/2023 16:05:11.460,0.215,-0.734,-0.066
4/21/2023 16:05:11.470,0.195,-0.594,-0.066
4/21/2023 16:05:11.480,0.164,-0.484,-0.039
4/21/2023 16:05:11.490,0.145,-0.395,-0.016
4/21/2023 16:05:11.500,0.113,-0.352,0.027
4/21/2023 16:05:11.510,0.094,-0.352,0.07
4/21/2023 16:05:11.520,0.07,-0.387,0.086
4/21/2023 16:05:11.530,0.039,-0.473,0.125
4/21/2023 16:05:11.540,0.004,-0.566,0.117
4/21/2023 16:05:11.550,-0.023,-0.621,0.09
4/21/2023 16:05:11.560,-0.035,-0.672,0.059
4/21/2023 16:05:11.570,-0.012,-0.719,0.082
4/21/2023 16:05:11.580,0.047,-0.766,0.148
4/21/2023 16:05:11.590,0.113,-0.797,0.188
4/21/2023 16:05:11.600,0.137,-0.797,0.18
4/21/2023 16:05:11.610,0.121,-0.766,0.156
4/21/2023 16:05:11.620,0.105,-0.746,0.129
4/21/2023 16:05:11.630,0.113,-0.754,0.109
4/21/2023 16:05:11.640,0.164,-0.785,0.074
4/21/2023 16:05:11.650,0.199,-0.855,0.066
4/21/2023 16:05:11.660,0.211,-0.949,0.035
4/21/2023 16:05:11.670,0.211,-1.066,0.012
4/21/2023 16:05:11.680,0.195,-1.211,0.035
4/21/2023 16:05:11.690,0.105,-1.387,0.074
4/21/2023 16:05:11.700,-0.051,-1.598,0.086
4/21/2023 16:05:11.710,-0.23,-1.852,0.102
4/21/2023 16:05:11.720,-0.348,-2.043,0.051
4/21/2023 16:05:11.730,-0.367,-1.996,-0.082
4/21/2023 16:05:11.740,-0.328,-1.785,-0.223
4/21/2023 16:05:11.750,-0.242,-1.566,-0.402
4/21/2023 16:05:11.760,-0.16,-1.504,-0.484
4/21/2023 16:05:11.770,-0.125,-1.594,-0.473
4/21/2023 16:05:11.780,-0.219,-1.68,-0.469
4/21/2023 16:05:11.790,-0.359,-1.68,-0.566
4/21/2023 16:05:11.800,-0.422,-1.547,-0.629
4/21/2023 16:05:11.810,-0.371,-1.328,-0.559
4/21/2023 16:05:11.820,-0.254,-1.055,-0.418
4/21/2023 16:05:11.830,-0.152,-0.777,-0.316
4/21/2023 16:05:11.840,-0.105,-0.59,-0.313
4/21/2023 16:05:11.850,-0.105,-0.535,-0.359
4/21/2023 16:05:11.860,-0.117,-0.598,-0.398
4/21/2023 16:05:11.870,-0.121,-0.738,-0.367
4/21/2023 16:05:11.880,-0.07,-0.895,-0.219
4/21/2023 16:05:11.890,0,-0.965,-0.082
4/21/2023 16:05:11.900,0.047,-0.898,-0.074
4/21/2023 16:05:11.910,0.023,-0.75,-0.137
4/21/2023 16:05:11.920,-0.035,-0.602,-0.195
4/21/2023 16:05:11.930,-0.102,-0.512,-0.207
4/21/2023 16:05:11.940,-0.168,-0.516,-0.184
4/21/2023 16:05:11.950,-0.227,-0.617,-0.184
4/21/2023 16:05:11.960,-0.246,-0.77,-0.168
4/21/2023 16:05:11.970,-0.219,-0.883,-0.141
4/21/2023 16:05:11.980,-0.172,-0.918,-0.129
4/21/2023 16:05:11.990,-0.113,-0.875,-0.113
4/21/2023 16:05:12.000,-0.059,-0.797,-0.094
4/21/2023 16:05:12.010,0.023,-0.719,-0.059
4/21/2023 16:05:12.020,0.105,-0.641,-0.043
4/21/2023 16:05:12.030,0.176,-0.602,-0.02
4/21/2023 16:05:12.040,0.242,-0.605,-0.02
4/21/2023 16:05:12.050,0.297,-0.625,-0.043
4/21/2023 16:05:12.060,0.297,-0.672,-0.066
4/21/2023 16:05:12.070,0.246,-0.738,-0.102
4/21/2023 16:05:12.080,0.133,-0.805,-0.125
4/21/2023 16:05:12.090,-0.035,-0.871,-0.16
4/21/2023 16:05:12.100,-0.199,-0.957,-0.188
4/21/2023 16:05:12.110,-0.316,-1.09,-0.152
4/21/2023 16:05:12.120,-0.336,-1.238,-0.078
4/21/2023 16:05:12.130,-0.219,-1.336,0.008
4/21/2023 16:05:12.140,-0.047,-1.328,0.07
4/21/2023 16:05:12.150,0.164,-1.25,0.102
4/21/2023 16:05:12.160,0.398,-1.164,0.133
4/21/2023 16:05:12.170,0.629,-1.109,0.176
4/21/2023 16:05:12.180,0.82,-1.07,0.227
4/21/2023 16:05:12.190,0.898,-1.027,0.23
4/21/2023 16:05:12.200,0.875,-1.004,0.23
4/21/2023 16:05:12.210,0.754,-1.055,0.223
4/21/2023 16:05:12.220,0.508,-1.148,0.078
4/21/2023 16:05:12.230,0.219,-1.273,-0.176
4/21/2023 16:05:12.240,-0.008,-1.43,-0.43
4/21/2023 16:05:12.250,-0.156,-1.574,-0.602
4/21/2023 16:05:12.260,-0.238,-1.672,-0.656
4/21/2023 16:05:12.270,-0.355,-1.664,-0.727
4/21/2023 16:05:12.280,-0.48,-1.543,-0.738
4/21/2023 16:05:12.290,-0.555,-1.387,-0.613
4/21/2023 16:05:12.300,-0.559,-1.266,-0.344
4/21/2023 16:05:12.310,-0.473,-1.09,-0.184
4/21/2023 16:05:12.320,-0.391,-0.871,-0.223
4/21/2023 16:05:12.330,-0.363,-0.691,-0.355
4/21/2023 16:05:12.340,-0.305,-0.672,-0.434
4/21/2023 16:05:12.350,-0.211,-0.895,-0.379
4/21/2023 16:05:12.360,-0.152,-1.234,-0.285
4/21/2023 16:05:12.370,-0.141,-1.57,-0.234
4/21/2023 16:05:12.380,-0.121,-1.754,-0.23
4/21/2023 16:05:12.390,-0.043,-1.707,-0.242
4/21/2023 16:05:12.400,0.074,-1.461,-0.223
4/21/2023 16:05:12.410,0.176,-1.156,-0.156
4/21/2023 16:05:12.420,0.219,-0.902,-0.082
4/21/2023 16:05:12.430,0.211,-0.703,-0.023
4/21/2023 16:05:12.440,0.195,-0.566,0.012
4/21/2023 16:05:12.450,0.184,-0.469,0.031
4/21/2023 16:05:12.460,0.16,-0.406,0.031
4/21/2023 16:05:12.470,0.137,-0.367,0.031
4/21/2023 16:05:12.480,0.098,-0.359,0.023
4/21/2023 16:05:12.490,0.059,-0.391,0.023
4/21/2023 16:05:12.500,0.012,-0.457,0.008
4/21/2023 16:05:12.510,-0.02,-0.566,0.035
4/21/2023 16:05:12.520,-0.055,-0.688,0.055
4/21/2023 16:05:12.530,-0.063,-0.742,0.043
4/21/2023 16:05:12.540,-0.043,-0.75,0.055
4/21/2023 16:05:12.550,0,-0.738,0.148
4/21/2023 16:05:12.560,0.063,-0.703,0.203
4/21/2023 16:05:12.570,0.141,-0.648,0.23
4/21/2023 16:05:12.580,0.203,-0.598,0.184
4/21/2023 16:05:12.590,0.266,-0.57,0.066
4/21/2023 16:05:12.600,0.313,-0.605,0
4/21/2023 16:05:12.610,0.336,-0.711,0.016
4/21/2023 16:05:12.620,0.313,-0.852,0.02
4/21/2023 16:05:12.630,0.27,-1.008,-0.004
4/21/2023 16:05:12.640,0.207,-1.168,0.012
4/21/2023 16:05:12.650,0.07,-1.32,0.031
4/21/2023 16:05:12.660,-0.125,-1.508,0.035
4/21/2023 16:05:12.670,-0.32,-1.762,0.047
4/21/2023 16:05:12.680,-0.426,-1.965,0.043
4/21/2023 16:05:12.690,-0.359,-1.98,0.063
4/21/2023 16:05:12.700,-0.168,-1.863,0.191
4/21/2023 16:05:12.710,0.074,-1.602,0.195
4/21/2023 16:05:12.720,0.277,-1.273,0.039
4/21/2023 16:05:12.730,0.34,-1.074,-0.176
4/21/2023 16:05:12.740,0.281,-1.113,-0.23
4/21/2023 16:05:12.750,0.078,-1.344,-0.148
4/21/2023 16:05:12.760,-0.23,-1.477,-0.27
4/21/2023 16:05:12.770,-0.512,-1.473,-0.566
4/21/2023 16:05:12.780,-0.699,-1.422,-0.801
4/21/2023 16:05:12.790,-0.727,-1.359,-0.855
4/21/2023 16:05:12.800,-0.582,-1.258,-0.672
4/21/2023 16:05:12.810,-0.391,-1.148,-0.449
4/21/2023 16:05:12.820,-0.234,-1.023,-0.34
4/21/2023 16:05:12.830,-0.125,-0.91,-0.324
4/21/2023 16:05:12.840,0.004,-0.809,-0.348
4/21/2023 16:05:12.850,0.176,-0.73,-0.262
4/21/2023 16:05:12.860,0.297,-0.676,-0.094
4/21/2023 16:05:12.870,0.301,-0.617,0.012
4/21/2023 16:05:12.880,0.188,-0.559,0
4/21/2023 16:05:12.890,0.035,-0.504,-0.078
4/21/2023 16:05:12.900,-0.105,-0.488,-0.137
4/21/2023 16:05:12.910,-0.238,-0.578,-0.16
4/21/2023 16:05:12.920,-0.336,-0.785,-0.148
4/21/2023 16:05:12.930,-0.375,-0.988,-0.145
4/21/2023 16:05:12.940,-0.352,-1.078,-0.168
4/21/2023 16:05:12.950,-0.305,-1.059,-0.176
4/21/2023 16:05:12.960,-0.23,-0.953,-0.16
4/21/2023 16:05:12.970,-0.121,-0.797,-0.129
4/21/2023 16:05:12.980,-0.004,-0.625,-0.098
4/21/2023 16:05:12.990,0.098,-0.5,-0.086
4/21/2023 16:05:13.000,0.199,-0.438,-0.066
4/21/2023 16:05:13.010,0.301,-0.488,-0.043
4/21/2023 16:05:13.020,0.363,-0.637,-0.023
4/21/2023 16:05:13.030,0.34,-0.848,-0.012
4/21/2023 16:05:13.040,0.254,-1.027,-0.035
4/21/2023 16:05:13.050,0.129,-1.133,-0.059
4/21/2023 16:05:13.060,0,-1.168,-0.047
4/21/2023 16:05:13.070,-0.094,-1.16,-0.016
4/21/2023 16:05:13.080,-0.098,-1.113,0.035
4/21/2023 16:05:13.090,-0.031,-1.078,0.105
4/21/2023 16:05:13.100,0.094,-1.074,0.152
4/21/2023 16:05:13.110,0.242,-1.102,0.16
4/21/2023 16:05:13.120,0.406,-1.148,0.148
4/21/2023 16:05:13.130,0.578,-1.199,0.156
4/21/2023 16:05:13.140,0.695,-1.238,0.172
4/21/2023 16:05:13.150,0.727,-1.277,0.184
4/21/2023 16:05:13.160,0.684,-1.313,0.156
4/21/2023 16:05:13.170,0.566,-1.344,0.043
4/21/2023 16:05:13.180,0.379,-1.391,-0.125
4/21/2023 16:05:13.190,0.152,-1.441,-0.348
4/21/2023 16:05:13.200,-0.055,-1.469,-0.555
4/21/2023 16:05:13.210,-0.227,-1.465,-0.664
4/21/2023 16:05:13.220,-0.363,-1.441,-0.676
4/21/2023 16:05:13.230,-0.492,-1.406,-0.59
4/21/2023 16:05:13.240,-0.582,-1.324,-0.5
4/21/2023 16:05:13.250,-0.645,-1.184,-0.328
4/21/2023 16:05:13.260,-0.645,-1.035,-0.199
4/21/2023 16:05:13.270,-0.551,-0.879,-0.25
4/21/2023 16:05:13.280,-0.383,-0.762,-0.414
4/21/2023 16:05:13.290,-0.188,-0.789,-0.48
4/21/2023 16:05:13.300,-0.035,-1.023,-0.402
4/21/2023 16:05:13.310,0.023,-1.426,-0.242
4/21/2023 16:05:13.320,0.039,-1.781,-0.172
4/21/2023 16:05:13.330,0.027,-1.793,-0.258
4/21/2023 16:05:13.340,0.07,-1.574,-0.281
4/21/2023 16:05:13.350,0.145,-1.27,-0.184
4/21/2023 16:05:13.360,0.18,-1,-0.102
4/21/2023 16:05:13.370,0.176,-0.777,-0.047
4/21/2023 16:05:13.380,0.152,-0.621,0
4/21/2023 16:05:13.390,0.137,-0.504,0.031
4/21/2023 16:05:13.400,0.137,-0.414,0.055
4/21/2023 16:05:13.410,0.129,-0.367,0.063
4/21/2023 16:05:13.420,0.121,-0.34,0.055
4/21/2023 16:05:13.430,0.102,-0.355,0.047
4/21/2023 16:05:13.440,0.066,-0.422,0.055
4/21/2023 16:05:13.450,0.027,-0.516,0.047
4/21/2023 16:05:13.460,-0.012,-0.594,0.004
4/21/2023 16:05:13.470,-0.043,-0.672,-0.012
4/21/2023 16:05:13.480,-0.051,-0.73,0.02
4/21/2023 16:05:13.490,-0.039,-0.754,0.086
4/21/2023 16:05:13.500,-0.02,-0.738,0.164
4/21/2023 16:05:13.510,0.039,-0.699,0.207
4/21/2023 16:05:13.520,0.109,-0.641,0.195
4/21/2023 16:05:13.530,0.18,-0.594,0.145
4/21/2023 16:05:13.540,0.254,-0.59,0.043
4/21/2023 16:05:13.550,0.301,-0.641,-0.047
4/21/2023 16:05:13.560,0.309,-0.773,-0.012
4/21/2023 16:05:13.570,0.266,-0.973,0.082
4/21/2023 16:05:13.580,0.207,-1.117,0.027
4/21/2023 16:05:13.590,0.148,-1.199,-0.078
4/21/2023 16:05:13.600,0.035,-1.293,-0.078
4/21/2023 16:05:13.610,-0.113,-1.438,-0.031
4/21/2023 16:05:13.620,-0.25,-1.645,0.047
4/21/2023 16:05:13.630,-0.313,-1.805,0.031
4/21/2023 16:05:13.640,-0.305,-1.828,-0.051
4/21/2023 16:05:13.650,-0.316,-1.719,-0.219
4/21/2023 16:05:13.660,-0.348,-1.57,-0.453
4/21/2023 16:05:13.670,-0.426,-1.563,-0.641
4/21/2023 16:05:13.680,-0.527,-1.73,-0.703
4/21/2023 16:05:13.690,-0.578,-1.934,-0.617
4/21/2023 16:05:13.700,-0.637,-2.008,-0.559
4/21/2023 16:05:13.710,-0.586,-1.855,-0.645
4/21/2023 16:05:13.720,-0.34,-1.57,-0.641
4/21/2023 16:05:13.730,-0.02,-1.254,-0.41
4/21/2023 16:05:13.740,0.199,-0.891,-0.059
4/21/2023 16:05:13.750,0.301,-0.512,0.203
4/21/2023 16:05:13.760,0.25,-0.207,0.121
4/21/2023 16:05:13.770,0.113,-0.023,-0.238
4/21/2023 16:05:13.780,0.031,-0.051,-0.59
4/21/2023 16:05:13.790,0.027,-0.305,-0.676
4/21/2023 16:05:13.800,-0.008,-0.77,-0.414
4/21/2023 16:05:13.810,-0.188,-1.555,0.223
4/21/2023 16:05:13.820,-0.246,-1.832,0.004
4/21/2023 16:05:13.830,-0.223,-1.508,-0.426
4/21/2023 16:05:13.840,-0.25,-1.164,-0.496
4/21/2023 16:05:13.850,-0.285,-0.914,-0.316
4/21/2023 16:05:13.860,-0.242,-0.727,-0.145
4/21/2023 16:05:13.870,-0.164,-0.574,-0.082
4/21/2023 16:05:13.880,-0.098,-0.461,-0.086
4/21/2023 16:05:13.890,-0.066,-0.41,-0.086
4/21/2023 16:05:13.900,-0.023,-0.41,-0.055
4/21/2023 16:05:13.910,0.051,-0.438,-0.023
4/21/2023 16:05:13.920,0.145,-0.484,-0.023
4/21/2023 16:05:13.930,0.23,-0.535,-0.035
4/21/2023 16:05:13.940,0.273,-0.613,-0.055
4/21/2023 16:05:13.950,0.297,-0.707,-0.078
4/21/2023 16:05:13.960,0.27,-0.809,-0.078
4/21/2023 16:05:13.970,0.219,-0.891,-0.102
4/21/2023 16:05:13.980,0.172,-0.953,-0.113
4/21/2023 16:05:13.990,0.145,-0.965,-0.086
4/21/2023 16:05:14.000,0.078,-0.922,-0.078
4/21/2023 16:05:14.010,0.004,-0.852,-0.086
4/21/2023 16:05:14.020,-0.09,-0.805,-0.074
4/21/2023 16:05:14.030,-0.23,-0.871,-0.047
4/21/2023 16:05:14.040,-0.289,-1.02,-0.035
4/21/2023 16:05:14.050,-0.172,-1.164,0.02
4/21/2023 16:05:14.060,0.035,-1.246,0.129
4/21/2023 16:05:14.070,0.25,-1.242,0.18
4/21/2023 16:05:14.080,0.434,-1.184,0.156
4/21/2023 16:05:14.090,0.605,-1.117,0.148
4/21/2023 16:05:14.100,0.738,-1.09,0.188
4/21/2023 16:05:14.110,0.758,-1.117,0.238
4/21/2023 16:05:14.120,0.625,-1.203,0.199
4/21/2023 16:05:14.130,0.391,-1.332,0.07
4/21/2023 16:05:14.140,0.141,-1.457,-0.18
4/21/2023 16:05:14.150,-0.07,-1.566,-0.48
4/21/2023 16:05:14.160,-0.234,-1.664,-0.684
4/21/2023 16:05:14.170,-0.367,-1.715,-0.66
4/21/2023 16:05:14.180,-0.457,-1.641,-0.621
4/21/2023 16:05:14.190,-0.523,-1.398,-0.574
4/21/2023 16:05:14.200,-0.578,-1.168,-0.406
4/21/2023 16:05:14.210,-0.527,-0.992,-0.25
4/21/2023 16:05:14.220,-0.418,-0.848,-0.23
4/21/2023 16:05:14.230,-0.336,-0.77,-0.332
4/21/2023 16:05:14.240,-0.266,-0.844,-0.367
4/21/2023 16:05:14.250,-0.199,-1.098,-0.301
4/21/2023 16:05:14.260,-0.156,-1.434,-0.227
4/21/2023 16:05:14.270,-0.105,-1.727,-0.168
4/21/2023 16:05:14.280,-0.023,-1.832,-0.152
4/21/2023 16:05:14.290,0.039,-1.688,-0.199
4/21/2023 16:05:14.300,0.113,-1.41,-0.211
4/21/2023 16:05:14.310,0.172,-1.145,-0.172
4/21/2023 16:05:14.320,0.195,-0.922,-0.121
4/21/2023 16:05:14.330,0.191,-0.754,-0.074
4/21/2023 16:05:14.340,0.18,-0.613,-0.035
4/21/2023 16:05:14.350,0.176,-0.496,0.008
4/21/2023 16:05:14.360,0.145,-0.402,0.043
4/21/2023 16:05:14.370,0.105,-0.328,0.043
4/21/2023 16:05:14.380,0.07,-0.289,0.023
4/21/2023 16:05:14.390,0.055,-0.285,0.02
4/21/2023 16:05:14.400,0.035,-0.313,0.031
4/21/2023 16:05:14.410,0.023,-0.402,0.063
4/21/2023 16:05:14.420,-0.008,-0.559,0.109
4/21/2023 16:05:14.430,-0.043,-0.688,0.102
4/21/2023 16:05:14.440,-0.074,-0.773,0.066
4/21/2023 16:05:14.450,-0.086,-0.844,0.074
4/21/2023 16:05:14.460,-0.074,-0.887,0.098
4/21/2023 16:05:14.470,-0.023,-0.895,0.137
4/21/2023 16:05:14.480,0.016,-0.895,0.164
4/21/2023 16:05:14.490,0.066,-0.855,0.125
4/21/2023 16:05:14.500,0.102,-0.797,0.086
4/21/2023 16:05:14.510,0.168,-0.781,0.133
4/21/2023 16:05:14.520,0.211,-0.777,0.141
4/21/2023 16:05:14.530,0.227,-0.785,0.07
4/21/2023 16:05:14.540,0.234,-0.855,0.035
4/21/2023 16:05:14.550,0.195,-1.004,0.055
4/21/2023 16:05:14.560,0.09,-1.219,0.055
4/21/2023 16:05:14.570,-0.066,-1.48,0.07
4/21/2023 16:05:14.580,-0.199,-1.762,0.094
4/21/2023 16:05:14.590,-0.223,-1.961,0.102
4/21/2023 16:05:14.600,-0.188,-1.949,0.039
4/21/2023 16:05:14.610,-0.105,-1.793,-0.051
4/21/2023 16:05:14.620,-0.074,-1.605,-0.129
4/21/2023 16:05:14.630,-0.09,-1.461,-0.293
4/21/2023 16:05:14.640,-0.172,-1.465,-0.355
4/21/2023 16:05:14.650,-0.32,-1.52,-0.371
4/21/2023 16:05:14.660,-0.496,-1.539,-0.465
4/21/2023 16:05:14.670,-0.551,-1.445,-0.605
4/21/2023 16:05:14.680,-0.457,-1.301,-0.629
4/21/2023 16:05:14.690,-0.309,-1.148,-0.449
4/21/2023 16:05:14.700,-0.188,-0.988,-0.297
4/21/2023 16:05:14.710,-0.152,-0.855,-0.258
4/21/2023 16:05:14.720,-0.168,-0.777,-0.258
4/21/2023 16:05:14.730,-0.152,-0.766,-0.281
4/21/2023 16:05:14.740,-0.055,-0.781,-0.289
4/21/2023 16:05:14.750,0.109,-0.816,-0.207
4/21/2023 16:05:14.760,0.215,-0.875,-0.125
4/21/2023 16:05:14.770,0.211,-0.891,-0.113
4/21/2023 16:05:14.780,0.098,-0.848,-0.152
4/21/2023 16:05:14.790,-0.047,-0.773,-0.191
4/21/2023 16:05:14.800,-0.168,-0.723,-0.215
4/21/2023 16:05:14.810,-0.254,-0.73,-0.195
4/21/2023 16:05:14.820,-0.297,-0.773,-0.184
4/21/2023 16:05:14.830,-0.297,-0.836,-0.168
4/21/2023 16:05:14.840,-0.258,-0.871,-0.133
4/21/2023 16:05:14.850,-0.191,-0.848,-0.098
4/21/2023 16:05:14.860,-0.121,-0.766,-0.07
4/21/2023 16:05:14.870,-0.043,-0.648,-0.039
4/21/2023 16:05:14.880,0.047,-0.523,-0.031
4/21/2023 16:05:14.890,0.145,-0.445,0
4/21/2023 16:05:14.900,0.234,-0.445,0.016
4/21/2023 16:05:14.910,0.297,-0.516,0.02
4/21/2023 16:05:14.920,0.32,-0.637,0
4/21/2023 16:05:14.930,0.309,-0.77,-0.07
4/21/2023 16:05:14.940,0.277,-0.863,-0.113
4/21/2023 16:05:14.950,0.188,-0.93,-0.133
4/21/2023 16:05:14.960,0.063,-0.953,-0.156
4/21/2023 16:05:14.970,-0.063,-0.957,-0.137
4/21/2023 16:05:14.980,-0.195,-1.004,-0.105
4/21/2023 16:05:14.990,-0.254,-1.086,-0.035
4/21/2023 16:05:15.000,-0.215,-1.152,0.055
4/21/2023 16:05:15.010,-0.066,-1.16,0.102
4/21/2023 16:05:15.020,0.129,-1.141,0.117
4/21/2023 16:05:15.030,0.305,-1.137,0.129
4/21/2023 16:05:15.040,0.5,-1.129,0.141
4/21/2023 16:05:15.050,0.707,-1.105,0.188
4/21/2023 16:05:15.060,0.824,-1.09,0.227
4/21/2023 16:05:15.070,0.805,-1.105,0.137
4/21/2023 16:05:15.080,0.609,-1.191,-0.035
4/21/2023 16:05:15.090,0.32,-1.367,-0.234
4/21/2023 16:05:15.100,0.063,-1.582,-0.469
4/21/2023 16:05:15.110,-0.164,-1.738,-0.703
4/21/2023 16:05:15.120,-0.359,-1.773,-0.785
4/21/2023 16:05:15.130,-0.488,-1.695,-0.723
4/21/2023 16:05:15.140,-0.605,-1.535,-0.59
4/21/2023 16:05:15.150,-0.707,-1.363,-0.449
4/21/2023 16:05:15.160,-0.695,-1.199,-0.379
4/21/2023 16:05:15.170,-0.57,-1.031,-0.375
4/21/2023 16:05:15.180,-0.43,-0.922,-0.406
4/21/2023 16:05:15.190,-0.305,-0.945,-0.391
4/21/2023 16:05:15.200,-0.215,-1.109,-0.332
4/21/2023 16:05:15.210,-0.141,-1.34,-0.27
4/21/2023 16:05:15.220,-0.094,-1.551,-0.207
4/21/2023 16:05:15.230,-0.059,-1.652,-0.191
4/21/2023 16:05:15.240,-0.027,-1.609,-0.211
4/21/2023 16:05:15.250,0.039,-1.41,-0.207
4/21/2023 16:05:15.260,0.117,-1.156,-0.148
4/21/2023 16:05:15.270,0.176,-0.914,-0.102
4/21/2023 16:05:15.280,0.184,-0.723,-0.07
4/21/2023 16:05:15.290,0.152,-0.57,-0.031
4/21/2023 16:05:15.300,0.105,-0.461,0.008
4/21/2023 16:05:15.310,0.066,-0.398,0.027
4/21/2023 16:05:15.320,0.035,-0.367,0.031
4/21/2023 16:05:15.330,0.02,-0.363,0.02
4/21/2023 16:05:15.340,0.016,-0.379,0.035
4/21/2023 16:05:15.350,0.016,-0.441,0.07
4/21/2023 16:05:15.360,0.023,-0.523,0.105
4/21/2023 16:05:15.370,0.027,-0.594,0.109
4/21/2023 16:05:15.380,0.047,-0.633,0.09
4/21/2023 16:05:15.390,0.078,-0.68,0.086
4/21/2023 16:05:15.400,0.113,-0.754,0.129
4/21/2023 16:05:15.410,0.133,-0.852,0.176
4/21/2023 16:05:15.420,0.137,-0.926,0.203
4/21/2023 16:05:15.430,0.121,-0.934,0.172
4/21/2023 16:05:15.440,0.133,-0.887,0.074
4/21/2023 16:05:15.450,0.203,-0.855,0.09
4/21/2023 16:05:15.460,0.266,-0.859,0.168
4/21/2023 16:05:15.470,0.289,-0.859,0.184
4/21/2023 16:05:15.480,0.238,-0.855,0.113
4/21/2023 16:05:15.490,0.16,-0.875,0.027
4/21/2023 16:05:15.500,0.078,-0.988,0.023
4/21/2023 16:05:15.510,-0.008,-1.254,0.16
4/21/2023 16:05:15.520,-0.125,-1.582,0.234
4/21/2023 16:05:15.530,-0.25,-1.813,0.156
4/21/2023 16:05:15.540,-0.355,-1.898,-0.023
4/21/2023 16:05:15.550,-0.449,-1.863,-0.184
4/21/2023 16:05:15.560,-0.5,-1.742,-0.367
4/21/2023 16:05:15.570,-0.5,-1.652,-0.512
4/21/2023 16:05:15.580,-0.453,-1.66,-0.5
4/21/2023 16:05:15.590,-0.395,-1.668,-0.414
4/21/2023 16:05:15.600,-0.395,-1.594,-0.477
4/21/2023 16:05:15.610,-0.34,-1.441,-0.621
4/21/2023 16:05:15.620,-0.184,-1.266,-0.602
4/21/2023 16:05:15.630,0.016,-1.125,-0.441
4/21/2023 16:05:15.640,0.145,-0.973,-0.219
4/21/2023 16:05:15.650,0.137,-0.813,-0.109
4/21/2023 16:05:15.660,0.02,-0.676,-0.16
4/21/2023 16:05:15.670,-0.07,-0.617,-0.313
4/21/2023 16:05:15.680,-0.063,-0.66,-0.391
4/21/2023 16:05:15.690,-0.008,-0.789,-0.289
4/21/2023 16:05:15.700,-0.031,-0.973,-0.133
4/21/2023 16:05:15.710,-0.113,-1.066,-0.094
4/21/2023 16:05:15.720,-0.152,-1.012,-0.172
4/21/2023 16:05:15.730,-0.156,-0.875,-0.211
4/21/2023 16:05:15.740,-0.164,-0.758,-0.203
4/21/2023 16:05:15.750,-0.18,-0.699,-0.18
4/21/2023 16:05:15.760,-0.172,-0.695,-0.129
4/21/2023 16:05:15.770,-0.141,-0.711,-0.082
4/21/2023 16:05:15.780,-0.102,-0.723,-0.066
4/21/2023 16:05:15.790,-0.055,-0.719,-0.059
4/21/2023 16:05:15.800,0.008,-0.691,-0.051
4/21/2023 16:05:15.810,0.078,-0.641,-0.031
4/21/2023 16:05:15.820,0.168,-0.59,-0.023
4/21/2023 16:05:15.830,0.246,-0.555,0.008
4/21/2023 16:05:15.840,0.309,-0.559,0.023
4/21/2023 16:05:15.850,0.332,-0.605,0.023
4/21/2023 16:05:15.860,0.34,-0.664,-0.012
4/21/2023 16:05:15.870,0.316,-0.723,-0.047
4/21/2023 16:05:15.880,0.258,-0.758,-0.078
4/21/2023 16:05:15.890,0.156,-0.766,-0.113
4/21/2023 16:05:15.900,0.02,-0.766,-0.125
4/21/2023 16:05:15.910,-0.156,-0.805,-0.133
4/21/2023 16:05:15.920,-0.316,-0.922,-0.141
4/21/2023 16:05:15.930,-0.359,-1.094,-0.141
4/21/2023 16:05:15.940,-0.242,-1.281,-0.074
4/21/2023 16:05:15.950,-0.023,-1.406,0.023
4/21/2023 16:05:15.960,0.199,-1.395,0.059
4/21/2023 16:05:15.970,0.41,-1.293,0.031
4/21/2023 16:05:15.980,0.68,-1.188,0.043
4/21/2023 16:05:15.990,0.918,-1.137,0.125
4/21/2023 16:05:16.000,0.973,-1.164,0.18
4/21/2023 16:05:16.010,0.813,-1.227,0.152
4/21/2023 16:05:16.020,0.531,-1.273,0.039
4/21/2023 16:05:16.030,0.23,-1.313,-0.105
4/21/2023 16:05:16.040,-0.039,-1.363,-0.301
4/21/2023 16:05:16.050,-0.188,-1.449,-0.504
4/21/2023 16:05:16.060,-0.25,-1.547,-0.586
4/21/2023 16:05:16.070,-0.285,-1.559,-0.574
4/21/2023 16:05:16.080,-0.363,-1.465,-0.566
4/21/2023 16:05:16.090,-0.473,-1.277,-0.613
4/21/2023 16:05:16.100,-0.551,-1.098,-0.563
4/21/2023 16:05:16.110,-0.547,-0.996,-0.445
4/21/2023 16:05:16.120,-0.496,-0.965,-0.328
4/21/2023 16:05:16.130,-0.426,-0.965,-0.289
4/21/2023 16:05:16.140,-0.375,-0.988,-0.34
4/21/2023 16:05:16.150,-0.332,-1.098,-0.395
4/21/2023 16:05:16.160,-0.258,-1.344,-0.324
4/21/2023 16:05:16.170,-0.129,-1.66,-0.16
4/21/2023 16:05:16.180,-0.027,-1.777,-0.164
4/21/2023 16:05:16.190,0.063,-1.637,-0.223
4/21/2023 16:05:16.200,0.176,-1.383,-0.207
4/21/2023 16:05:16.210,0.285,-1.133,-0.121
4/21/2023 16:05:16.220,0.348,-0.914,-0.055
4/21/2023 16:05:16.230,0.348,-0.742,-0.004
4/21/2023 16:05:16.240,0.32,-0.605,0.004
4/21/2023 16:05:16.250,0.266,-0.492,-0.008
4/21/2023 16:05:16.260,0.223,-0.406,-0.016
4/21/2023 16:05:16.270,0.176,-0.352,0.004
4/21/2023 16:05:16.280,0.133,-0.332,0.02
4/21/2023 16:05:16.290,0.098,-0.34,0.043
4/21/2023 16:05:16.300,0.047,-0.398,0.102
4/21/2023 16:05:16.310,-0.02,-0.492,0.148
4/21/2023 16:05:16.320,-0.082,-0.559,0.133
4/21/2023 16:05:16.330,-0.098,-0.59,0.059
4/21/2023 16:05:16.340,-0.074,-0.645,0.035
4/21/2023 16:05:16.350,-0.02,-0.762,0.121
4/21/2023 16:05:16.360,0.063,-0.859,0.215
4/21/2023 16:05:16.370,0.148,-0.895,0.203
4/21/2023 16:05:16.380,0.184,-0.871,0.105
4/21/2023 16:05:16.390,0.191,-0.836,0.02
4/21/2023 16:05:16.400,0.195,-0.848,0.082
4/21/2023 16:05:16.410,0.207,-0.883,0.188
4/21/2023 16:05:16.420,0.18,-0.867,0.164
4/21/2023 16:05:16.430,0.125,-0.863,0.059
4/21/2023 16:05:16.440,0.063,-0.973,0.027
4/21/2023 16:05:16.450,0.016,-1.23,0.105
4/21/2023 16:05:16.460,-0.074,-1.574,0.223
4/21/2023 16:05:16.470,-0.207,-1.867,0.18
4/21/2023 16:05:16.480,-0.289,-2.016,0.039
4/21/2023 16:05:16.490,-0.324,-1.98,-0.07
4/21/2023 16:05:16.500,-0.309,-1.801,-0.188
4/21/2023 16:05:16.510,-0.258,-1.605,-0.324
4/21/2023 16:05:16.520,-0.23,-1.535,-0.395
4/21/2023 16:05:16.530,-0.266,-1.57,-0.359
4/21/2023 16:05:16.540,-0.391,-1.59,-0.391
4/21/2023 16:05:16.550,-0.535,-1.551,-0.512
4/21/2023 16:05:16.560,-0.551,-1.453,-0.602
4/21/2023 16:05:16.570,-0.379,-1.316,-0.559
4/21/2023 16:05:16.580,-0.109,-1.156,-0.379
4/21/2023 16:05:16.590,0.09,-0.949,-0.145
4/21/2023 16:05:16.600,0.145,-0.715,-0.031
4/21/2023 16:05:16.610,0.121,-0.512,-0.059
4/21/2023 16:05:16.620,0.07,-0.383,-0.223
4/21/2023 16:05:16.630,0.059,-0.375,-0.395
4/21/2023 16:05:16.640,0.09,-0.496,-0.418
4/21/2023 16:05:16.650,0.063,-0.781,-0.262
4/21/2023 16:05:16.660,-0.07,-1.121,-0.055
4/21/2023 16:05:16.670,-0.184,-1.25,-0.164
4/21/2023 16:05:16.680,-0.25,-1.164,-0.297
4/21/2023 16:05:16.690,-0.309,-1.031,-0.309
4/21/2023 16:05:16.700,-0.348,-0.934,-0.254
4/21/2023 16:05:16.710,-0.332,-0.863,-0.184
4/21/2023 16:05:16.720,-0.27,-0.824,-0.125
4/21/2023 16:05:16.730,-0.191,-0.781,-0.082
4/21/2023 16:05:16.740,-0.113,-0.715,-0.059
4/21/2023 16:05:16.750,-0.055,-0.637,-0.043
4/21/2023 16:05:16.760,0.012,-0.555,-0.027
4/21/2023 16:05:16.770,0.102,-0.477,-0.012
4/21/2023 16:05:16.780,0.207,-0.426,-0.004
4/21/2023 16:05:16.790,0.297,-0.422,0.004
4/21/2023 16:05:16.800,0.34,-0.48,-0.02
4/21/2023 16:05:16.810,0.348,-0.582,-0.059
4/21/2023 16:05:16.820,0.32,-0.715,-0.09
4/21/2023 16:05:16.830,0.258,-0.848,-0.129
4/21/2023 16:05:16.840,0.176,-0.934,-0.172
4/21/2023 16:05:16.850,0.102,-0.965,-0.152
4/21/2023 16:05:16.860,0,-0.969,-0.121
4/21/2023 16:05:16.870,-0.137,-0.973,-0.113
4/21/2023 16:05:16.880,-0.23,-1.039,-0.09
4/21/2023 16:05:16.890,-0.211,-1.164,0.02
4/21/2023 16:05:16.900,-0.094,-1.266,0.141
4/21/2023 16:05:16.910,0.086,-1.254,0.184
4/21/2023 16:05:16.920,0.297,-1.18,0.168
4/21/2023 16:05:16.930,0.52,-1.117,0.184
4/21/2023 16:05:16.940,0.715,-1.063,0.234
4/21/2023 16:05:16.950,0.867,-1.012,0.262
4/21/2023 16:05:16.960,0.922,-0.996,0.227
4/21/2023 16:05:16.970,0.832,-1.047,0.125
4/21/2023 16:05:16.980,0.59,-1.18,-0.031
4/21/2023 16:05:16.990,0.273,-1.383,-0.289
4/21/2023 16:05:17.000,-0.012,-1.574,-0.617
4/21/2023 16:05:17.010,-0.203,-1.715,-0.793
4/21/2023 16:05:17.020,-0.383,-1.785,-0.742
4/21/2023 16:05:17.030,-0.516,-1.703,-0.715
4/21/2023 16:05:17.040,-0.621,-1.508,-0.648
4/21/2023 16:05:17.050,-0.711,-1.309,-0.414
4/21/2023 16:05:17.060,-0.68,-1.145,-0.223
4/21/2023 16:05:17.070,-0.543,-0.957,-0.23
4/21/2023 16:05:17.080,-0.391,-0.789,-0.371
4/21/2023 16:05:17.090,-0.234,-0.793,-0.449
4/21/2023 16:05:17.100,-0.09,-1.047,-0.348
4/21/2023 16:05:17.110,-0.02,-1.438,-0.195
4/21/2023 16:05:17.120,-0.016,-1.777,-0.109
4/21/2023 16:05:17.130,-0.016,-1.828,-0.176
4/21/2023 16:05:17.140,0.023,-1.629,-0.254
4/21/2023 16:05:17.150,0.133,-1.336,-0.203
4/21/2023 16:05:17.160,0.215,-1.074,-0.094
4/21/2023 16:05:17.170,0.227,-0.867,-0.039
4/21/2023 16:05:17.180,0.215,-0.707,-0.016
4/21/2023 16:05:17.190,0.203,-0.578,0
4/21/2023 16:05:17.200,0.191,-0.473,0.035
4/21/2023 16:05:17.210,0.168,-0.398,0.047
4/21/2023 16:05:17.220,0.141,-0.344,0.027
4/21/2023 16:05:17.230,0.109,-0.316,0.012
4/21/2023 16:05:17.240,0.074,-0.324,0.004
4/21/2023 16:05:17.250,0.059,-0.363,0.008
4/21/2023 16:05:17.260,0.027,-0.469,0.09
4/21/2023 16:05:17.270,0.004,-0.605,0.172
4/21/2023 16:05:17.280,-0.027,-0.699,0.195
4/21/2023 16:05:17.290,-0.047,-0.738,0.148
4/21/2023 16:05:17.300,-0.008,-0.746,0.102
4/21/2023 16:05:17.310,0.094,-0.785,0.117
4/21/2023 16:05:17.320,0.195,-0.852,0.168
4/21/2023 16:05:17.330,0.242,-0.891,0.137
4/21/2023 16:05:17.340,0.254,-0.875,0.039
4/21/2023 16:05:17.350,0.258,-0.863,0.066
4/21/2023 16:05:17.360,0.258,-0.828,0.082
4/21/2023 16:05:17.370,0.258,-0.781,0.023
4/21/2023 16:05:17.380,0.242,-0.805,-0.004
4/21/2023 16:05:17.390,0.184,-0.926,0.023
4/21/2023 16:05:17.400,0.035,-1.18,0.129
4/21/2023 16:05:17.410,-0.168,-1.492,0.145
4/21/2023 16:05:17.420,-0.344,-1.801,0.098
4/21/2023 16:05:17.430,-0.398,-2.023,0.063
4/21/2023 16:05:17.440,-0.348,-2.023,0.035
4/21/2023 16:05:17.450,-0.254,-1.797,-0.051
4/21/2023 16:05:17.460,-0.16,-1.52,-0.215
4/21/2023 16:05:17.470,-0.051,-1.352,-0.336
4/21/2023 16:05:17.480,0.004,-1.348,-0.309
4/21/2023 16:05:17.490,-0.113,-1.441,-0.246
4/21/2023 16:05:17.500,-0.375,-1.492,-0.34
4/21/2023 16:05:17.510,-0.582,-1.465,-0.543
4/21/2023 16:05:17.520,-0.609,-1.375,-0.703
4/21/2023 16:05:17.530,-0.406,-1.285,-0.613
4/21/2023 16:05:17.540,-0.18,-1.176,-0.324
4/21/2023 16:05:17.550,-0.043,-1.031,-0.148
4/21/2023 16:05:17.560,-0.008,-0.867,-0.16
4/21/2023 16:05:17.570,0.012,-0.738,-0.242
4/21/2023 16:05:17.580,0.098,-0.676,-0.281
4/21/2023 16:05:17.590,0.199,-0.676,-0.219
4/21/2023 16:05:17.600,0.23,-0.727,-0.121
4/21/2023 16:05:17.610,0.156,-0.777,-0.082
4/21/2023 16:05:17.620,0.02,-0.785,-0.121
4/21/2023 16:05:17.630,-0.102,-0.754,-0.18
4/21/2023 16:05:17.640,-0.195,-0.723,-0.199
4/21/2023 16:05:17.650,-0.273,-0.762,-0.18
4/21/2023 16:05:17.660,-0.316,-0.832,-0.148
4/21/2023 16:05:17.670,-0.297,-0.879,-0.133
4/21/2023 16:05:17.680,-0.242,-0.871,-0.109
4/21/2023 16:05:17.690,-0.176,-0.824,-0.078
4/21/2023 16:05:17.700,-0.109,-0.738,-0.055
4/21/2023 16:05:17.710,-0.047,-0.617,-0.035
4/21/2023 16:05:17.720,0.016,-0.492,-0.039
4/21/2023 16:05:17.730,0.074,-0.414,-0.023
4/21/2023 16:05:17.740,0.145,-0.414,0
4/21/2023 16:05:17.750,0.199,-0.492,0.016
4/21/2023 16:05:17.760,0.246,-0.625,0.008
4/21/2023 16:05:17.770,0.25,-0.762,-0.031
4/21/2023 16:05:17.780,0.227,-0.852,-0.098
4/21/2023 16:05:17.790,0.172,-0.926,-0.148
4/21/2023 16:05:17.800,0.102,-0.988,-0.156
4/21/2023 16:05:17.810,-0.004,-1.07,-0.121
4/21/2023 16:05:17.820,-0.098,-1.152,-0.078
4/21/2023 16:05:17.830,-0.109,-1.215,-0.008
4/21/2023 16:05:17.840,-0.023,-1.211,0.07
4/21/2023 16:05:17.850,0.141,-1.164,0.133
4/21/2023 16:05:17.860,0.305,-1.141,0.164
4/21/2023 16:05:17.870,0.457,-1.148,0.148
4/21/2023 16:05:17.880,0.637,-1.184,0.141
4/21/2023 16:05:17.890,0.789,-1.211,0.164
4/21/2023 16:05:17.900,0.828,-1.23,0.164
4/21/2023 16:05:17.910,0.723,-1.25,0.105
4/21/2023 16:05:17.920,0.48,-1.324,-0.063
4/21/2023 16:05:17.930,0.191,-1.453,-0.316
4/21/2023 16:05:17.940,-0.055,-1.598,-0.594
4/21/2023 16:05:17.950,-0.27,-1.75,-0.801
4/21/2023 16:05:17.960,-0.391,-1.797,-0.805
4/21/2023 16:05:17.970,-0.477,-1.711,-0.703
4/21/2023 16:05:17.980,-0.582,-1.512,-0.59
4/21/2023 16:05:17.990,-0.688,-1.277,-0.426
4/21/2023 16:05:18.000,-0.73,-1.082,-0.301
4/21/2023 16:05:18.010,-0.652,-0.922,-0.324
4/21/2023 16:05:18.020,-0.523,-0.813,-0.402
4/21/2023 16:05:18.030,-0.348,-0.82,-0.406
4/21/2023 16:05:18.040,-0.18,-1.02,-0.324
4/21/2023 16:05:18.050,-0.066,-1.344,-0.207
4/21/2023 16:05:18.060,-0.016,-1.688,-0.121
4/21/2023 16:05:18.070,-0.012,-1.813,-0.184
4/21/2023 16:05:18.080,0.008,-1.664,-0.258
4/21/2023 16:05:18.090,0.102,-1.375,-0.199
4/21/2023 16:05:18.100,0.195,-1.074,-0.102
4/21/2023 16:05:18.110,0.242,-0.813,-0.035
4/21/2023 16:05:18.120,0.215,-0.617,-0.008
4/21/2023 16:05:18.130,0.176,-0.461,-0.012
4/21/2023 16:05:18.140,0.141,-0.348,-0.012
4/21/2023 16:05:18.150,0.117,-0.289,0.008
4/21/2023 16:05:18.160,0.094,-0.266,0.027
4/21/2023 16:05:18.170,0.086,-0.273,0.031
4/21/2023 16:05:18.180,0.055,-0.316,0.043
4/21/2023 16:05:18.190,0.039,-0.418,0.086
4/21/2023 16:05:18.200,0.016,-0.543,0.117
4/21/2023 16:05:18.210,0.004,-0.598,0.074
4/21/2023 16:05:18.220,0,-0.629,0.016
4/21/2023 16:05:18.230,0,-0.688,0.012
4/21/2023 16:05:18.240,0.012,-0.762,0.055
4/21/2023 16:05:18.250,0.051,-0.836,0.121
4/21/2023 16:05:18.260,0.102,-0.895,0.172
4/21/2023 16:05:18.270,0.129,-0.922,0.164
4/21/2023 16:05:18.280,0.145,-0.898,0.082
4/21/2023 16:05:18.290,0.188,-0.848,0.016
4/21/2023 16:05:18.300,0.234,-0.832,0.07
4/21/2023 16:05:18.310,0.246,-0.859,0.133
4/21/2023 16:05:18.320,0.223,-0.891,0.102
4/21/2023 16:05:18.330,0.168,-0.938,0.02
4/21/2023 16:05:18.340,0.109,-1.039,0.027
4/21/2023 16:05:18.350,-0.004,-1.273,0.125
4/21/2023 16:05:18.360,-0.156,-1.574,0.164
4/21/2023 16:05:18.370,-0.297,-1.891,0.145
4/21/2023 16:05:18.380,-0.383,-1.988,-0.047
4/21/2023 16:05:18.390,-0.367,-1.84,-0.266
4/21/2023 16:05:18.400,-0.328,-1.68,-0.398
4/21/2023 16:05:18.410,-0.277,-1.625,-0.504
4/21/2023 16:05:18.420,-0.238,-1.695,-0.543
4/21/2023 16:05:18.430,-0.281,-1.781,-0.574
4/21/2023 16:05:18.440,-0.445,-1.844,-0.629
4/21/2023 16:05:18.450,-0.598,-1.844,-0.672
4/21/2023 16:05:18.460,-0.477,-1.652,-0.586
4/21/2023 16:05:18.470,-0.227,-1.371,-0.336
4/21/2023 16:05:18.480,-0.051,-1.02,-0.117
4/21/2023 16:05:18.490,0.004,-0.633,-0.086
4/21/2023 16:05:18.500,-0.031,-0.32,-0.188
4/21/2023 16:05:18.510,-0.027,-0.176,-0.324
4/21/2023 16:05:18.520,0.035,-0.215,-0.387
4/21/2023 16:05:18.530,0.129,-0.453,-0.293
4/21/2023 16:05:18.540,0.137,-0.773,-0.137
4/21/2023 16:05:18.550,0.031,-1.063,-0.051
4/21/2023 16:05:18.560,-0.078,-1.117,-0.164
4/21/2023 16:05:18.570,-0.16,-1.004,-0.285
4/21/2023 16:05:18.580,-0.227,-0.863,-0.285
4/21/2023 16:05:18.590,-0.305,-0.773,-0.25
4/21/2023 16:05:18.600,-0.359,-0.758,-0.234
4/21/2023 16:05:18.610,-0.355,-0.773,-0.207
4/21/2023 16:05:18.620,-0.285,-0.805,-0.168
4/21/2023 16:05:18.630,-0.188,-0.801,-0.133
4/21/2023 16:05:18.640,-0.109,-0.754,-0.105
4/21/2023 16:05:18.650,-0.027,-0.656,-0.098
4/21/2023 16:05:18.660,0.051,-0.559,-0.094
4/21/2023 16:05:18.670,0.129,-0.48,-0.07
4/21/2023 16:05:18.680,0.195,-0.461,-0.047
4/21/2023 16:05:18.690,0.25,-0.512,-0.031
4/21/2023 16:05:18.700,0.281,-0.617,-0.043
4/21/2023 16:05:18.710,0.305,-0.727,-0.066
4/21/2023 16:05:18.720,0.266,-0.824,-0.098
4/21/2023 16:05:18.730,0.172,-0.879,-0.125
4/21/2023 16:05:18.740,0.074,-0.887,-0.125
4/21/2023 16:05:18.750,-0.008,-0.875,-0.125
4/21/2023 16:05:18.760,-0.09,-0.895,-0.098
4/21/2023 16:05:18.770,-0.188,-0.98,-0.07
4/21/2023 16:05:18.780,-0.215,-1.121,-0.027
4/21/2023 16:05:18.790,-0.098,-1.234,0.078
4/21/2023 16:05:18.800,0.086,-1.254,0.172
4/21/2023 16:05:18.810,0.281,-1.207,0.191
4/21/2023 16:05:18.820,0.48,-1.148,0.176
4/21/2023 16:05:18.830,0.688,-1.113,0.184
4/21/2023 16:05:18.840,0.867,-1.078,0.203
4/21/2023 16:05:18.850,0.957,-1.055,0.223
4/21/2023 16:05:18.860,0.914,-1.086,0.211
4/21/2023 16:05:18.870,0.699,-1.172,0.137
4/21/2023 16:05:18.880,0.391,-1.289,-0.004
4/21/2023 16:05:18.890,0.113,-1.383,-0.285
4/21/2023 16:05:18.900,-0.074,-1.445,-0.637
4/21/2023 16:05:18.910,-0.238,-1.5,-0.805
4/21/2023 16:05:18.920,-0.422,-1.539,-0.777
4/21/2023 16:05:18.930,-0.609,-1.492,-0.703
4/21/2023 16:05:18.940,-0.758,-1.402,-0.605
4/21/2023 16:05:18.950,-0.84,-1.313,-0.457
4/21/2023 16:05:18.960,-0.813,-1.176,-0.352
4/21/2023 16:05:18.970,-0.711,-1.039,-0.371
4/21/2023 16:05:18.980,-0.57,-0.953,-0.445
4/21/2023 16:05:18.990,-0.395,-1.055,-0.43
4/21/2023 16:05:19.000,-0.219,-1.305,-0.336
4/21/2023 16:05:19.010,-0.059,-1.566,-0.258
4/21/2023 16:05:19.020,0.031,-1.738,-0.238
4/21/2023 16:05:19.030,0.09,-1.723,-0.238
4/21/2023 16:05:19.040,0.148,-1.555,-0.254
4/21/2023 16:05:19.050,0.223,-1.316,-0.227
4/21/2023 16:05:19.060,0.285,-1.09,-0.156
4/21/2023 16:05:19.070,0.313,-0.91,-0.09
4/21/2023 16:05:19.080,0.309,-0.766,-0.031
4/21/2023 16:05:19.090,0.281,-0.648,0.004
4/21/2023 16:05:19.100,0.223,-0.539,0.004
4/21/2023 16:05:19.110,0.148,-0.441,-0.02
4/21/2023 16:05:19.120,0.086,-0.359,-0.016
4/21/2023 16:05:19.130,0.039,-0.301,0.008
4/21/2023 16:05:19.140,0.012,-0.285,0.035
4/21/2023 16:05:19.150,-0.016,-0.32,0.063
4/21/2023 16:05:19.160,-0.055,-0.422,0.082
4/21/2023 16:05:19.170,-0.086,-0.566,0.086
4/21/2023 16:05:19.180,-0.105,-0.691,0.07
4/21/2023 16:05:19.190,-0.086,-0.781,0.07
4/21/2023 16:05:19.200,-0.035,-0.828,0.086
4/21/2023 16:05:19.210,0.031,-0.871,0.148
4/21/2023 16:05:19.220,0.098,-0.879,0.203
4/21/2023 16:05:19.230,0.109,-0.848,0.191
4/21/2023 16:05:19.240,0.066,-0.777,0.09
4/21/2023 16:05:19.250,0.078,-0.711,0.055
4/21/2023 16:05:19.260,0.188,-0.684,0.094
4/21/2023 16:05:19.270,0.309,-0.699,0.125
4/21/2023 16:05:19.280,0.336,-0.758,0.035
4/21/2023 16:05:19.290,0.258,-0.898,-0.004
4/21/2023 16:05:19.300,0.145,-1.152,0.074
4/21/2023 16:05:19.310,-0.02,-1.465,0.129
4/21/2023 16:05:19.320,-0.195,-1.758,0.121
4/21/2023 16:05:19.330,-0.336,-1.957,0.078
4/21/2023 16:05:19.340,-0.367,-1.949,0.039
4/21/2023 16:05:19.350,-0.27,-1.746,-0.023
4/21/2023 16:05:19.360,-0.137,-1.508,-0.07
4/21/2023 16:05:19.370,-0.02,-1.305,-0.254
4/21/2023 16:05:19.380,0.039,-1.23,-0.422
4/21/2023 16:05:19.390,-0.082,-1.301,-0.508
4/21/2023 16:05:19.400,-0.379,-1.469,-0.684
4/21/2023 16:05:19.410,-0.602,-1.656,-0.813
4/21/2023 16:05:19.420,-0.609,-1.816,-0.766
4/21/2023 16:05:19.430,-0.41,-1.789,-0.59
4/21/2023 16:05:19.440,-0.145,-1.555,-0.426
4/21/2023 16:05:19.450,-0.016,-1.238,-0.367
4/21/2023 16:05:19.460,-0.004,-0.91,-0.395
4/21/2023 16:05:19.470,0.043,-0.621,-0.395
4/21/2023 16:05:19.480,0.152,-0.438,-0.297
4/21/2023 16:05:19.490,0.199,-0.406,-0.168
4/21/2023 16:05:19.500,0.098,-0.516,-0.113
4/21/2023 16:05:19.510,-0.043,-0.672,-0.148
4/21/2023 16:05:19.520,-0.141,-0.781,-0.223
4/21/2023 16:05:19.530,-0.191,-0.832,-0.234
4/21/2023 16:05:19.540,-0.254,-0.863,-0.238
4/21/2023 16:05:19.550,-0.309,-0.883,-0.266
4/21/2023 16:05:19.560,-0.305,-0.883,-0.254
4/21/2023 16:05:19.570,-0.273,-0.848,-0.207
4/21/2023 16:05:19.580,-0.238,-0.781,-0.207
4/21/2023 16:05:19.590,-0.215,-0.695,-0.199
4/21/2023 16:05:19.600,-0.172,-0.598,-0.152
4/21/2023 16:05:19.610,-0.102,-0.535,-0.082
4/21/2023 16:05:19.620,-0.008,-0.512,-0.055
4/21/2023 16:05:19.630,0.09,-0.516,-0.078
4/21/2023 16:05:19.640,0.168,-0.555,-0.098
4/21/2023 16:05:19.650,0.211,-0.629,-0.102
4/21/2023 16:05:19.660,0.234,-0.719,-0.129
4/21/2023 16:05:19.670,0.238,-0.805,-0.156
4/21/2023 16:05:19.680,0.219,-0.871,-0.156
4/21/2023 16:05:19.690,0.188,-0.902,-0.137
4/21/2023 16:05:19.700,0.113,-0.91,-0.098
4/21/2023 16:05:19.710,-0.008,-0.914,-0.082
4/21/2023 16:05:19.720,-0.086,-0.949,-0.07
4/21/2023 16:05:19.730,-0.02,-1.02,0.031
4/21/2023 16:05:19.740,0.133,-1.105,0.145
4/21/2023 16:05:19.750,0.285,-1.141,0.168
4/21/2023 16:05:19.760,0.422,-1.141,0.129
4/21/2023 16:05:19.770,0.578,-1.137,0.105
4/21/2023 16:05:19.780,0.742,-1.133,0.109
4/21/2023 16:05:19.790,0.832,-1.152,0.137
4/21/2023 16:05:19.800,0.758,-1.184,0.094
4/21/2023 16:05:19.810,0.547,-1.238,-0.07
4/21/2023 16:05:19.820,0.297,-1.301,-0.313
4/21/2023 16:05:19.830,0.07,-1.391,-0.582
4/21/2023 16:05:19.840,-0.16,-1.52,-0.813
4/21/2023 16:05:19.850,-0.449,-1.695,-0.891
4/21/2023 16:05:19.860,-0.711,-1.848,-0.828
4/21/2023 16:05:19.870,-0.852,-1.875,-0.711
4/21/2023 16:05:19.880,-0.781,-1.727,-0.527
4/21/2023 16:05:19.890,-0.672,-1.469,-0.277
4/21/2023 16:05:19.900,-0.617,-1.152,-0.145
4/21/2023 16:05:19.910,-0.52,-0.813,-0.113
4/21/2023 16:05:19.920,-0.375,-0.602,-0.223
4/21/2023 16:05:19.930,-0.207,-0.707,-0.359
4/21/2023 16:05:19.940,-0.035,-1.098,-0.332
4/21/2023 16:05:19.950,0.066,-1.492,-0.238
4/21/2023 16:05:19.960,0.063,-1.695,-0.227
4/21/2023 16:05:19.970,0.047,-1.633,-0.234
4/21/2023 16:05:19.980,0.086,-1.418,-0.234
4/21/2023 16:05:19.990,0.16,-1.164,-0.199
4/21/2023 16:05:20.000,0.203,-0.941,-0.172
4/21/2023 16:05:20.010,0.211,-0.777,-0.133
4/21/2023 16:05:20.020,0.195,-0.648,-0.082
4/21/2023 16:05:20.030,0.176,-0.539,-0.035
4/21/2023 16:05:20.040,0.152,-0.453,-0.004
4/21/2023 16:05:20.050,0.117,-0.395,0.016
4/21/2023 16:05:20.060,0.07,-0.371,0.004
4/21/2023 16:05:20.070,0.027,-0.383,-0.023
4/21/2023 16:05:20.080,-0.012,-0.422,-0.047
4/21/2023 16:05:20.090,-0.051,-0.477,-0.066
4/21/2023 16:05:20.100,-0.082,-0.539,-0.047
4/21/2023 16:05:20.110,-0.094,-0.594,0.008
4/21/2023 16:05:20.120,-0.094,-0.645,0.066
4/21/2023 16:05:20.130,-0.074,-0.672,0.117
4/21/2023 16:05:20.140,-0.051,-0.707,0.164
4/21/2023 16:05:20.150,-0.008,-0.719,0.195
4/21/2023 16:05:20.160,0.039,-0.711,0.195
4/21/2023 16:05:20.170,0.066,-0.68,0.137
4/21/2023 16:05:20.180,0.078,-0.645,-0.004
4/21/2023 16:05:20.190,0.09,-0.652,-0.109
4/21/2023 16:05:20.200,0.141,-0.734,-0.125
4/21/2023 16:05:20.210,0.199,-0.875,-0.055
4/21/2023 16:05:20.220,0.219,-1.086,0.008
4/21/2023 16:05:20.230,0.199,-1.27,-0.051
4/21/2023 16:05:20.240,0.137,-1.387,-0.117
4/21/2023 16:05:20.250,0.055,-1.469,-0.09
4/21/2023 16:05:20.260,-0.004,-1.582,0.051
4/21/2023 16:05:20.270,-0.059,-1.727,0.133
4/21/2023 16:05:20.280,-0.066,-1.84,0.094
4/21/2023 16:05:20.290,0.043,-1.871,0.086
4/21/2023 16:05:20.300,0.238,-1.777,0.039
4/21/2023 16:05:20.310,0.418,-1.563,-0.043
4/21/2023 16:05:20.320,0.477,-1.328,-0.207
4/21/2023 16:05:20.330,0.297,-1.215,-0.379
4/21/2023 16:05:20.340,-0.047,-1.238,-0.465
4/21/2023 16:05:20.350,-0.473,-1.379,-0.473
4/21/2023 16:05:20.360,-0.82,-1.508,-0.535
4/21/2023 16:05:20.370,-0.906,-1.5,-0.613
4/21/2023 16:05:20.380,-0.77,-1.395,-0.566
4/21/2023 16:05:20.390,-0.516,-1.246,-0.418
4/21/2023 16:05:20.400,-0.348,-1.09,-0.363
4/21/2023 16:05:20.410,-0.289,-1,-0.371
4/21/2023 16:05:20.420,-0.219,-0.957,-0.371
4/21/2023 16:05:20.430,-0.082,-0.902,-0.32
4/21/2023 16:05:20.440,0.082,-0.797,-0.203
4/21/2023 16:05:20.450,0.195,-0.656,-0.113
4/21/2023 16:05:20.460,0.211,-0.523,-0.09
4/21/2023 16:05:20.470,0.145,-0.426,-0.125
4/21/2023 16:05:20.480,0.031,-0.41,-0.168
4/21/2023 16:05:20.490,-0.086,-0.484,-0.184
4/21/2023 16:05:20.500,-0.227,-0.637,-0.184
4/21/2023 16:05:20.510,-0.352,-0.84,-0.23
4/21/2023 16:05:20.520,-0.434,-1.004,-0.313
4/21/2023 16:05:20.530,-0.43,-1.07,-0.313
4/21/2023 16:05:20.540,-0.371,-1.035,-0.266
4/21/2023 16:05:20.550,-0.289,-0.906,-0.23
4/21/2023 16:05:20.560,-0.195,-0.746,-0.191
4/21/2023 16:05:20.570,-0.074,-0.602,-0.133
4/21/2023 16:05:20.580,0.059,-0.504,-0.07
4/21/2023 16:05:20.590,0.18,-0.469,-0.039
4/21/2023 16:05:20.600,0.297,-0.5,-0.023
4/21/2023 16:05:20.610,0.391,-0.59,-0.004
4/21/2023 16:05:20.620,0.438,-0.703,-0.004
4/21/2023 16:05:20.630,0.43,-0.809,-0.031
4/21/2023 16:05:20.640,0.352,-0.875,-0.074
4/21/2023 16:05:20.650,0.219,-0.883,-0.121
4/21/2023 16:05:20.660,0.047,-0.887,-0.129
4/21/2023 16:05:20.670,-0.133,-0.938,-0.094
4/21/2023 16:05:20.680,-0.238,-1.074,-0.012
4/21/2023 16:05:20.690,-0.195,-1.234,0.102
4/21/2023 16:05:20.700,-0.039,-1.32,0.195
4/21/2023 16:05:20.710,0.152,-1.297,0.242
4/21/2023 16:05:20.720,0.375,-1.23,0.234
4/21/2023 16:05:20.730,0.621,-1.191,0.234
4/21/2023 16:05:20.740,0.852,-1.18,0.215
4/21/2023 16:05:20.750,0.949,-1.199,0.188
4/21/2023 16:05:20.760,0.844,-1.234,0.133
4/21/2023 16:05:20.770,0.688,-1.277,0.043
4/21/2023 16:05:20.780,0.465,-1.316,-0.07
4/21/2023 16:05:20.790,0.16,-1.355,-0.352
4/21/2023 16:05:20.800,-0.141,-1.398,-0.707
4/21/2023 16:05:20.810,-0.398,-1.5,-0.859
4/21/2023 16:05:20.820,-0.594,-1.641,-0.758
4/21/2023 16:05:20.830,-0.691,-1.668,-0.59
4/21/2023 16:05:20.840,-0.707,-1.555,-0.426
4/21/2023 16:05:20.850,-0.672,-1.324,-0.32
4/21/2023 16:05:20.860,-0.563,-1.016,-0.285
4/21/2023 16:05:20.870,-0.449,-0.766,-0.355
4/21/2023 16:05:20.880,-0.305,-0.68,-0.426
4/21/2023 16:05:20.890,-0.156,-0.824,-0.355
4/21/2023 16:05:20.900,-0.07,-1.105,-0.246
4/21/2023 16:05:20.910,-0.059,-1.367,-0.199
4/21/2023 16:05:20.920,-0.078,-1.527,-0.211
4/21/2023 16:05:20.930,-0.055,-1.551,-0.203
4/21/2023 16:05:20.940,0.02,-1.449,-0.188
4/21/2023 16:05:20.950,0.109,-1.285,-0.176
4/21/2023 16:05:20.960,0.172,-1.105,-0.145
4/21/2023 16:05:20.970,0.195,-0.934,-0.09
4/21/2023 16:05:20.980,0.195,-0.77,-0.027
4/21/2023 16:05:20.990,0.203,-0.613,0.035
4/21/2023 16:05:21.000,0.203,-0.492,0.078
4/21/2023 16:05:21.010,0.207,-0.402,0.09
4/21/2023 16:05:21.020,0.172,-0.359,0.059
4/21/2023 16:05:21.030,0.105,-0.355,0.023
4/21/2023 16:05:21.040,0.027,-0.398,0.004
4/21/2023 16:05:21.050,-0.043,-0.469,-0.004
4/21/2023 16:05:21.060,-0.102,-0.57,0.016
4/21/2023 16:05:21.070,-0.145,-0.688,0.047
4/21/2023 16:05:21.080,-0.16,-0.758,0.066
4/21/2023 16:05:21.090,-0.141,-0.801,0.086
4/21/2023 16:05:21.100,-0.078,-0.801,0.125
4/21/2023 16:05:21.110,0.035,-0.781,0.184
4/21/2023 16:05:21.120,0.16,-0.746,0.188
4/21/2023 16:05:21.130,0.25,-0.715,0.109
4/21/2023 16:05:21.140,0.324,-0.711,0.027
4/21/2023 16:05:21.150,0.363,-0.758,0.043
4/21/2023 16:05:21.160,0.34,-0.84,0.078
4/21/2023 16:05:21.170,0.285,-0.914,0.027
4/21/2023 16:05:21.180,0.242,-0.992,-0.027
4/21/2023 16:05:21.190,0.219,-1.129,0.035
4/21/2023 16:05:21.200,0.125,-1.344,0.133
4/21/2023 16:05:21.210,-0.051,-1.57,0.129
4/21/2023 16:05:21.220,-0.219,-1.738,0.004
4/21/2023 16:05:21.230,-0.32,-1.73,-0.176
4/21/2023 16:05:21.240,-0.398,-1.594,-0.398
4/21/2023 16:05:21.250,-0.52,-1.496,-0.621
4/21/2023 16:05:21.260,-0.656,-1.563,-0.859
4/21/2023 16:05:21.270,-0.723,-1.738,-0.996
4/21/2023 16:05:21.280,-0.719,-2,-1.086
4/21/2023 16:05:21.290,-0.613,-2.27,-1.117
4/21/2023 16:05:21.300,-0.434,-2.438,-0.754
4/21/2023 16:05:21.310,-0.145,-2.168,-0.355
4/21/2023 16:05:21.320,0.133,-1.551,-0.121
4/21/2023 16:05:21.330,0.199,-0.758,-0.082
4/21/2023 16:05:21.340,0.105,-0.004,-0.207
4/21/2023 16:05:21.350,0.082,0.465,-0.496
4/21/2023 16:05:21.360,0.207,0.508,-0.574
4/21/2023 16:05:21.370,0.242,0.094,-0.402
4/21/2023 16:05:21.380,0.051,-0.594,-0.133
4/21/2023 16:05:21.390,-0.316,-1.449,0.137
4/21/2023 16:05:21.400,-0.426,-1.793,-0.125
4/21/2023 16:05:21.410,-0.352,-1.594,-0.348
4/21/2023 16:05:21.420,-0.332,-1.273,-0.367
4/21/2023 16:05:21.430,-0.336,-0.977,-0.32
4/21/2023 16:05:21.440,-0.301,-0.762,-0.258
4/21/2023 16:05:21.450,-0.238,-0.629,-0.172
4/21/2023 16:05:21.460,-0.133,-0.539,-0.074
4/21/2023 16:05:21.470,-0.02,-0.43,0.02
4/21/2023 16:05:21.480,0.07,-0.305,0.066
4/21/2023 16:05:21.490,0.137,-0.227,0.047
4/21/2023 16:05:21.500,0.184,-0.227,0.004
4/21/2023 16:05:21.510,0.262,-0.34,0.008
4/21/2023 16:05:21.520,0.293,-0.523,0.027
4/21/2023 16:05:21.530,0.25,-0.742,0.008
4/21/2023 16:05:21.540,0.168,-0.93,-0.039
4/21/2023 16:05:21.550,0.105,-1.035,-0.102
4/21/2023 16:05:21.560,0.066,-1.043,-0.117
4/21/2023 16:05:21.570,0.023,-0.965,-0.09
4/21/2023 16:05:21.580,-0.02,-0.844,-0.043
4/21/2023 16:05:21.590,-0.109,-0.746,-0.031
4/21/2023 16:05:21.600,-0.23,-0.734,-0.051
4/21/2023 16:05:21.610,-0.254,-0.84,0
4/21/2023 16:05:21.620,-0.137,-1.031,0.113
4/21/2023 16:05:21.630,0.055,-1.227,0.195
4/21/2023 16:05:21.640,0.246,-1.332,0.191
4/21/2023 16:05:21.650,0.445,-1.324,0.156
4/21/2023 16:05:21.660,0.668,-1.23,0.129
4/21/2023 16:05:21.670,0.813,-1.141,0.145
4/21/2023 16:05:21.680,0.82,-1.098,0.121
4/21/2023 16:05:21.690,0.664,-1.125,0.012
4/21/2023 16:05:21.700,0.406,-1.254,-0.199
4/21/2023 16:05:21.710,0.156,-1.48,-0.461
4/21/2023 16:05:21.720,-0.059,-1.742,-0.66
4/21/2023 16:05:21.730,-0.281,-1.902,-0.742
4/21/2023 16:05:21.740,-0.5,-1.844,-0.758
4/21/2023 16:05:21.750,-0.723,-1.699,-0.648
4/21/2023 16:05:21.760,-0.883,-1.527,-0.5
4/21/2023 16:05:21.770,-0.91,-1.32,-0.422
4/21/2023 16:05:21.780,-0.84,-1.133,-0.434
4/21/2023 16:05:21.790,-0.691,-1.016,-0.457
4/21/2023 16:05:21.800,-0.477,-1.02,-0.422
4/21/2023 16:05:21.810,-0.258,-1.137,-0.34
4/21/2023 16:05:21.820,-0.094,-1.313,-0.262
4/21/2023 16:05:21.830,-0.004,-1.457,-0.211
4/21/2023 16:05:21.840,0.012,-1.543,-0.188
4/21/2023 16:05:21.850,0.02,-1.531,-0.176
4/21/2023 16:05:21.860,0.035,-1.402,-0.168
4/21/2023 16:05:21.870,0.086,-1.172,-0.137
4/21/2023 16:05:21.880,0.145,-0.906,-0.098
4/21/2023 16:05:21.890,0.195,-0.656,-0.066
4/21/2023 16:05:21.900,0.211,-0.473,-0.047
4/21/2023 16:05:21.910,0.176,-0.352,-0.035
4/21/2023 16:05:21.920,0.113,-0.293,-0.012
4/21/2023 16:05:21.930,0.051,-0.285,0.004
4/21/2023 16:05:21.940,0.012,-0.309,0.012
4/21/2023 16:05:21.950,-0.016,-0.367,0.02
4/21/2023 16:05:21.960,-0.023,-0.449,0.047
4/21/2023 16:05:21.970,-0.023,-0.559,0.102
4/21/2023 16:05:21.980,-0.02,-0.684,0.117
4/21/2023 16:05:21.990,-0.008,-0.727,0.066
4/21/2023 16:05:22.000,0,-0.742,0.035
4/21/2023 16:05:22.010,0.035,-0.785,0.094
4/21/2023 16:05:22.020,0.078,-0.824,0.184
4/21/2023 16:05:22.030,0.117,-0.863,0.246
4/21/2023 16:05:22.040,0.141,-0.879,0.258
4/21/2023 16:05:22.050,0.141,-0.879,0.223
4/21/2023 16:05:22.060,0.152,-0.844,0.152
4/21/2023 16:05:22.070,0.219,-0.801,0.137
4/21/2023 16:05:22.080,0.285,-0.797,0.18
4/21/2023 16:05:22.090,0.297,-0.809,0.16
4/21/2023 16:05:22.100,0.25,-0.832,0.063
4/21/2023 16:05:22.110,0.164,-0.91,-0.016
4/21/2023 16:05:22.120,0.051,-1.098,0.066
4/21/2023 16:05:22.130,-0.094,-1.449,0.211
4/21/2023 16:05:22.140,-0.234,-1.789,0.199
4/21/2023 16:05:22.150,-0.305,-1.957,0.121
4/21/2023 16:05:22.160,-0.316,-1.895,-0.004
4/21/2023 16:05:22.170,-0.309,-1.656,-0.16
4/21/2023 16:05:22.180,-0.301,-1.387,-0.352
4/21/2023 16:05:22.190,-0.297,-1.223,-0.539
4/21/2023 16:05:22.200,-0.34,-1.188,-0.68
4/21/2023 16:05:22.210,-0.465,-1.273,-0.813
4/21/2023 16:05:22.220,-0.605,-1.465,-0.977
4/21/2023 16:05:22.230,-0.645,-1.734,-1.02
4/21/2023 16:05:22.240,-0.516,-2.012,-0.785
4/21/2023 16:05:22.250,-0.219,-1.965,-0.457
4/21/2023 16:05:22.260,0.043,-1.594,-0.176
4/21/2023 16:05:22.270,0.145,-1.109,-0.039
4/21/2023 16:05:22.280,0.129,-0.605,-0.141
4/21/2023 16:05:22.290,0.121,-0.184,-0.387
4/21/2023 16:05:22.300,0.215,-0.012,-0.504
4/21/2023 16:05:22.310,0.305,-0.141,-0.379
4/21/2023 16:05:22.320,0.23,-0.457,-0.191
4/21/2023 16:05:22.330,-0.008,-0.879,-0.031
4/21/2023 16:05:22.340,-0.254,-1.293,-0.004
4/21/2023 16:05:22.350,-0.316,-1.344,-0.219
4/21/2023 16:05:22.360,-0.32,-1.184,-0.379
4/21/2023 16:05:22.370,-0.336,-1.012,-0.375
4/21/2023 16:05:22.380,-0.344,-0.887,-0.277
4/21/2023 16:05:22.390,-0.316,-0.785,-0.176
4/21/2023 16:05:22.400,-0.25,-0.688,-0.102
4/21/2023 16:05:22.410,-0.156,-0.57,-0.031
4/21/2023 16:05:22.420,-0.035,-0.449,-0.016
4/21/2023 16:05:22.430,0.078,-0.348,-0.027
4/21/2023 16:05:22.440,0.164,-0.316,-0.031
4/21/2023 16:05:22.450,0.246,-0.359,-0.031
4/21/2023 16:05:22.460,0.313,-0.484,-0.004
4/21/2023 16:05:22.470,0.332,-0.703,0.016
4/21/2023 16:05:22.480,0.313,-0.891,-0.043
4/21/2023 16:05:22.490,0.238,-1.02,-0.098
4/21/2023 16:05:22.500,0.121,-1.043,-0.117
4/21/2023 16:05:22.510,0,-0.973,-0.133
4/21/2023 16:05:22.520,-0.152,-0.887,-0.156
4/21/2023 16:05:22.530,-0.305,-0.859,-0.16
4/21/2023 16:05:22.540,-0.352,-0.941,-0.078
4/21/2023 16:05:22.550,-0.219,-1.059,0.07
4/21/2023 16:05:22.560,0.016,-1.129,0.199
4/21/2023 16:05:22.570,0.277,-1.129,0.199
4/21/2023 16:05:22.580,0.555,-1.105,0.137
4/21/2023 16:05:22.590,0.824,-1.098,0.117
4/21/2023 16:05:22.600,1.016,-1.094,0.176
4/21/2023 16:05:22.610,1.047,-1.117,0.203
4/21/2023 16:05:22.620,0.855,-1.18,0.145
4/21/2023 16:05:22.630,0.492,-1.262,-0.066
4/21/2023 16:05:22.640,0.074,-1.328,-0.391
4/21/2023 16:05:22.650,-0.301,-1.398,-0.723
4/21/2023 16:05:22.660,-0.551,-1.523,-0.922
4/21/2023 16:05:22.670,-0.648,-1.684,-0.836
4/21/2023 16:05:22.680,-0.684,-1.715,-0.762
4/21/2023 16:05:22.690,-0.719,-1.605,-0.73
4/21/2023 16:05:22.700,-0.734,-1.414,-0.598
4/21/2023 16:05:22.710,-0.699,-1.23,-0.414
4/21/2023 16:05:22.720,-0.617,-1.094,-0.336
4/21/2023 16:05:22.730,-0.508,-1.012,-0.363
4/21/2023 16:05:22.740,-0.387,-1.039,-0.367
4/21/2023 16:05:22.750,-0.27,-1.23,-0.293
4/21/2023 16:05:22.760,-0.141,-1.512,-0.191
4/21/2023 16:05:22.770,-0.051,-1.68,-0.195
4/21/2023 16:05:22.780,0.012,-1.695,-0.234
4/21/2023 16:05:22.790,0.109,-1.586,-0.215
4/21/2023 16:05:22.800,0.211,-1.383,-0.141
4/21/2023 16:05:22.810,0.262,-1.137,-0.105
4/21/2023 16:05:22.820,0.273,-0.887,-0.086
4/21/2023 16:05:22.830,0.277,-0.676,-0.035
4/21/2023 16:05:22.840,0.262,-0.512,0.023
4/21/2023 16:05:22.850,0.242,-0.395,0.039
4/21/2023 16:05:22.860,0.219,-0.305,0.027
4/21/2023 16:05:22.870,0.188,-0.254,0.004
4/21/2023 16:05:22.880,0.129,-0.238,0.004
4/21/2023 16:05:22.890,0.059,-0.262,-0.008
4/21/2023 16:05:22.900,-0.016,-0.324,0.043
4/21/2023 16:05:22.910,-0.102,-0.477,0.129
4/21/2023 16:05:22.920,-0.172,-0.605,0.145
4/21/2023 16:05:22.930,-0.184,-0.664,0.098
4/21/2023 16:05:22.940,-0.16,-0.719,0.074
4/21/2023 16:05:22.950,-0.098,-0.785,0.102
4/21/2023 16:05:22.960,0.012,-0.867,0.195
4/21/2023 16:05:22.970,0.102,-0.91,0.234
4/21/2023 16:05:22.980,0.148,-0.855,0.125
4/21/2023 16:05:22.990,0.184,-0.785,0.043
4/21/2023 16:05:23.000,0.211,-0.766,0.113
4/21/2023 16:05:23.010,0.254,-0.777,0.215
4/21/2023 16:05:23.020,0.277,-0.785,0.152
4/21/2023 16:05:23.030,0.238,-0.844,0.027
4/21/2023 16:05:23.040,0.148,-1.066,0.074
4/21/2023 16:05:23.050,0.035,-1.422,0.207
4/21/2023 16:05:23.060,-0.086,-1.738,0.223
4/21/2023 16:05:23.070,-0.219,-1.867,0.074
4/21/2023 16:05:23.080,-0.344,-1.824,-0.117
4/21/2023 16:05:23.090,-0.434,-1.715,-0.246
4/21/2023 16:05:23.100,-0.5,-1.602,-0.395
4/21/2023 16:05:23.110,-0.547,-1.602,-0.527
4/21/2023 16:05:23.120,-0.547,-1.719,-0.625
4/21/2023 16:05:23.130,-0.488,-1.836,-0.672
4/21/2023 16:05:23.140,-0.402,-1.91,-0.746
4/21/2023 16:05:23.150,-0.227,-1.895,-0.688
4/21/2023 16:05:23.160,-0.027,-1.723,-0.477
4/21/2023 16:05:23.170,0.168,-1.367,-0.254
4/21/2023 16:05:23.180,0.262,-0.922,-0.086
4/21/2023 16:05:23.190,0.215,-0.492,-0.027
4/21/2023 16:05:23.200,0.129,-0.16,-0.152
4/21/2023 16:05:23.210,0.109,-0.027,-0.398
4/21/2023 16:05:23.220,0.141,-0.16,-0.488
4/21/2023 16:05:23.230,0.059,-0.547,-0.313
4/21/2023 16:05:23.240,-0.199,-1.184,0.031
4/21/2023 16:05:23.250,-0.348,-1.516,-0.102
4/21/2023 16:05:23.260,-0.34,-1.383,-0.332
4/21/2023 16:05:23.270,-0.305,-1.156,-0.352
4/21/2023 16:05:23.280,-0.262,-0.957,-0.281
4/21/2023 16:05:23.290,-0.195,-0.805,-0.223
4/21/2023 16:05:23.300,-0.133,-0.688,-0.156
4/21/2023 16:05:23.310,-0.09,-0.598,-0.105
4/21/2023 16:05:23.320,-0.07,-0.539,-0.051
4/21/2023 16:05:23.330,-0.059,-0.477,-0.008
4/21/2023 16:05:23.340,-0.039,-0.426,-0.008
4/21/2023 16:05:23.350,0.016,-0.398,0
4/21/2023 16:05:23.360,0.086,-0.43,0.023
4/21/2023 16:05:23.370,0.16,-0.539,0.035
4/21/2023 16:05:23.380,0.219,-0.684,0.012
4/21/2023 16:05:23.390,0.238,-0.813,-0.031
4/21/2023 16:05:23.400,0.203,-0.887,-0.098
4/21/2023 16:05:23.410,0.141,-0.914,-0.148
4/21/2023 16:05:23.420,0.129,-0.895,-0.145
4/21/2023 16:05:23.430,0.125,-0.867,-0.086
4/21/2023 16:05:23.440,0.094,-0.816,-0.059
4/21/2023 16:05:23.450,-0.027,-0.797,-0.063
4/21/2023 16:05:23.460,-0.168,-0.848,-0.07
4/21/2023 16:05:23.470,-0.18,-0.969,-0.02
4/21/2023 16:05:23.480,-0.078,-1.125,0.078
4/21/2023 16:05:23.490,0.063,-1.238,0.105
4/21/2023 16:05:23.500,0.18,-1.273,0.082
4/21/2023 16:05:23.510,0.34,-1.23,0.082
4/21/2023 16:05:23.520,0.543,-1.156,0.141
4/21/2023 16:05:23.530,0.746,-1.066,0.258
4/21/2023 16:05:23.540,0.828,-1.004,0.305
4/21/2023 16:05:23.550,0.723,-0.984,0.18
4/21/2023 16:05:23.560,0.484,-1.07,-0.063
4/21/2023 16:05:23.570,0.227,-1.262,-0.289
4/21/2023 16:05:23.580,0.035,-1.535,-0.496
4/21/2023 16:05:23.590,-0.109,-1.816,-0.625
4/21/2023 16:05:23.600,-0.266,-1.914,-0.734
4/21/2023 16:05:23.610,-0.473,-1.836,-0.809
4/21/2023 16:05:23.620,-0.637,-1.691,-0.723
4/21/2023 16:05:23.630,-0.73,-1.527,-0.551
4/21/2023 16:05:23.640,-0.738,-1.324,-0.422
4/21/2023 16:05:23.650,-0.672,-1.102,-0.352
4/21/2023 16:05:23.660,-0.57,-0.914,-0.348
4/21/2023 16:05:23.670,-0.43,-0.828,-0.367
4/21/2023 16:05:23.680,-0.277,-0.918,-0.324
4/21/2023 16:05:23.690,-0.152,-1.152,-0.227
4/21/2023 16:05:23.700,-0.055,-1.383,-0.172
4/21/2023 16:05:23.710,0.031,-1.535,-0.16
4/21/2023 16:05:23.720,0.086,-1.59,-0.145
4/21/2023 16:05:23.730,0.137,-1.523,-0.121
4/21/2023 16:05:23.740,0.188,-1.328,-0.09
4/21/2023 16:05:23.750,0.25,-1.074,-0.063
4/21/2023 16:05:23.760,0.285,-0.832,-0.051
4/21/2023 16:05:23.770,0.277,-0.625,-0.059
4/21/2023 16:05:23.780,0.234,-0.484,-0.047
4/21/2023 16:05:23.790,0.184,-0.402,-0.016
4/21/2023 16:05:23.800,0.117,-0.371,-0.004
4/21/2023 16:05:23.810,0.066,-0.367,0.004
4/21/2023 16:05:23.820,0.008,-0.398,0.016
4/21/2023 16:05:23.830,-0.047,-0.457,0.031
4/21/2023 16:05:23.840,-0.09,-0.531,0.055
4/21/2023 16:05:23.850,-0.094,-0.629,0.074
4/21/2023 16:05:23.860,-0.078,-0.707,0.113
4/21/2023 16:05:23.870,-0.047,-0.758,0.152
4/21/2023 16:05:23.880,-0.016,-0.773,0.148
4/21/2023 16:05:23.890,0.039,-0.773,0.129
4/21/2023 16:05:23.900,0.105,-0.789,0.145
4/21/2023 16:05:23.910,0.152,-0.816,0.191
4/21/2023 16:05:23.920,0.184,-0.832,0.191
4/21/2023 16:05:23.930,0.215,-0.816,0.156
4/21/2023 16:05:23.940,0.266,-0.785,0.148
4/21/2023 16:05:23.950,0.324,-0.75,0.152
4/21/2023 16:05:23.960,0.328,-0.738,0.121
4/21/2023 16:05:23.970,0.27,-0.773,0.043
4/21/2023 16:05:23.980,0.199,-0.895,0.035
4/21/2023 16:05:23.990,0.109,-1.152,0.129
4/21/2023 16:05:24.000,-0.035,-1.449,0.125
4/21/2023 16:05:24.010,-0.184,-1.758,0.105
4/21/2023 16:05:24.020,-0.289,-1.973,0.078
4/21/2023 16:05:24.030,-0.309,-1.965,-0.02
4/21/2023 16:05:24.040,-0.273,-1.797,-0.094
4/21/2023 16:05:24.050,-0.227,-1.605,-0.195
4/21/2023 16:05:24.060,-0.164,-1.461,-0.301
4/21/2023 16:05:24.070,-0.133,-1.465,-0.293
4/21/2023 16:05:24.080,-0.219,-1.574,-0.297
4/21/2023 16:05:24.090,-0.406,-1.652,-0.402
4/21/2023 16:05:24.100,-0.527,-1.637,-0.566
4/21/2023 16:05:24.110,-0.465,-1.492,-0.59
4/21/2023 16:05:24.120,-0.285,-1.301,-0.414
4/21/2023 16:05:24.130,-0.117,-1.055,-0.219
4/21/2023 16:05:24.140,-0.039,-0.789,-0.168
4/21/2023 16:05:24.150,-0.043,-0.586,-0.227
4/21/2023 16:05:24.160,-0.039,-0.508,-0.281
4/21/2023 16:05:24.170,0.02,-0.574,-0.281
4/21/2023 16:05:24.180,0.121,-0.742,-0.195
4/21/2023 16:05:24.190,0.191,-0.934,-0.066
4/21/2023 16:05:24.200,0.195,-1.016,-0.055
4/21/2023 16:05:24.210,0.129,-0.957,-0.121
4/21/2023 16:05:24.220,0.039,-0.828,-0.184
4/21/2023 16:05:24.230,-0.066,-0.723,-0.199
4/21/2023 16:05:24.240,-0.176,-0.691,-0.195
4/21/2023 16:05:24.250,-0.227,-0.738,-0.168
4/21/2023 16:05:24.260,-0.207,-0.816,-0.109
4/21/2023 16:05:24.270,-0.16,-0.852,-0.063
4/21/2023 16:05:24.280,-0.125,-0.824,-0.039
4/21/2023 16:05:24.290,-0.098,-0.742,-0.027
4/21/2023 16:05:24.300,-0.063,-0.629,-0.031
4/21/2023 16:05:24.310,-0.016,-0.516,-0.016
4/21/2023 16:05:24.320,0.031,-0.441,-0.004
4/21/2023 16:05:24.330,0.078,-0.422,0.027
4/21/2023 16:05:24.340,0.133,-0.465,0.043
4/21/2023 16:05:24.350,0.168,-0.559,0.023
4/21/2023 16:05:24.360,0.184,-0.684,-0.012
4/21/2023 16:05:24.370,0.184,-0.809,-0.059
4/21/2023 16:05:24.380,0.16,-0.902,-0.082
4/21/2023 16:05:24.390,0.086,-0.961,-0.094
4/21/2023 16:05:24.400,-0.004,-0.996,-0.098
4/21/2023 16:05:24.410,-0.09,-1.031,-0.09
4/21/2023 16:05:24.420,-0.105,-1.102,-0.063
4/21/2023 16:05:24.430,-0.043,-1.18,0.016
4/21/2023 16:05:24.440,0.07,-1.238,0.09
4/21/2023 16:05:24.450,0.188,-1.25,0.121
4/21/2023 16:05:24.460,0.324,-1.234,0.141
4/21/2023 16:05:24.470,0.48,-1.195,0.152
4/21/2023 16:05:24.480,0.633,-1.148,0.168
4/21/2023 16:05:24.490,0.715,-1.102,0.18
4/21/2023 16:05:24.500,0.668,-1.078,0.133
4/21/2023 16:05:24.510,0.492,-1.141,-0.047
4/21/2023 16:05:24.520,0.242,-1.34,-0.309
4/21/2023 16:05:24.530,0.039,-1.621,-0.574
4/21/2023 16:05:24.540,-0.117,-1.852,-0.777
4/21/2023 16:05:24.550,-0.266,-1.914,-0.844
4/21/2023 16:05:24.560,-0.445,-1.832,-0.801
4/21/2023 16:05:24.570,-0.613,-1.648,-0.707
4/21/2023 16:05:24.580,-0.777,-1.41,-0.496
4/21/2023 16:05:24.590,-0.844,-1.172,-0.27
4/21/2023 16:05:24.600,-0.762,-0.93,-0.262
4/21/2023 16:05:24.610,-0.613,-0.738,-0.348
4/21/2023 16:05:24.620,-0.402,-0.672,-0.391
4/21/2023 16:05:24.630,-0.188,-0.828,-0.313
4/21/2023 16:05:24.640,-0.063,-1.137,-0.219
4/21/2023 16:05:24.650,-0.004,-1.461,-0.18
4/21/2023 16:05:24.660,0.016,-1.688,-0.18
4/21/2023 16:05:24.670,0.039,-1.715,-0.219
4/21/2023 16:05:24.680,0.102,-1.523,-0.23
4/21/2023 16:05:24.690,0.188,-1.227,-0.176
4/21/2023 16:05:24.700,0.242,-0.949,-0.105
4/21/2023 16:05:24.710,0.25,-0.723,-0.063
4/21/2023 16:05:24.720,0.219,-0.566,-0.035
4/21/2023 16:05:24.730,0.172,-0.473,-0.016
4/21/2023 16:05:24.740,0.117,-0.434,-0.004
4/21/2023 16:05:24.750,0.055,-0.43,0.004
4/21/2023 16:05:24.760,0.012,-0.461,0.023
4/21/2023 16:05:24.770,-0.012,-0.516,0.066
4/21/2023 16:05:24.780,-0.027,-0.586,0.113
4/21/2023 16:05:24.790,-0.039,-0.621,0.105
4/21/2023 16:05:24.800,-0.043,-0.621,0.066
4/21/2023 16:05:24.810,-0.031,-0.617,0.059
4/21/2023 16:05:24.820,-0.008,-0.633,0.105
4/21/2023 16:05:24.830,0.047,-0.66,0.152
4/21/2023 16:05:24.840,0.105,-0.695,0.223
4/21/2023 16:05:24.850,0.145,-0.711,0.277
4/21/2023 16:05:24.860,0.145,-0.715,0.254
4/21/2023 16:05:24.870,0.152,-0.715,0.156
4/21/2023 16:05:24.880,0.18,-0.738,0.105
4/21/2023 16:05:24.890,0.219,-0.785,0.109
4/21/2023 16:05:24.900,0.234,-0.84,0.082
4/21/2023 16:05:24.910,0.207,-0.867,-0.008
4/21/2023 16:05:24.920,0.141,-0.91,-0.074
4/21/2023 16:05:24.930,0.063,-1.023,-0.035
4/21/2023 16:05:24.940,-0.023,-1.188,0.063
4/21/2023 16:05:24.950,-0.109,-1.352,0.055
4/21/2023 16:05:24.960,-0.18,-1.535,0.027
4/21/2023 16:05:24.970,-0.191,-1.754,0.063
4/21/2023 16:05:24.980,-0.152,-1.863,-0.027
4/21/2023 16:05:24.990,-0.113,-1.832,-0.199
4/21/2023 16:05:25.000,-0.125,-1.73,-0.398
4/21/2023 16:05:25.010,-0.176,-1.723,-0.527
4/21/2023 16:05:25.020,-0.266,-1.867,-0.516
4/21/2023 16:05:25.030,-0.355,-1.949,-0.461
4/21/2023 16:05:25.040,-0.465,-1.855,-0.5
4/21/2023 16:05:25.050,-0.508,-1.613,-0.598
4/21/2023 16:05:25.060,-0.445,-1.316,-0.602
4/21/2023 16:05:25.070,-0.313,-1.035,-0.473
4/21/2023 16:05:25.080,-0.211,-0.781,-0.316
4/21/2023 16:05:25.090,-0.156,-0.582,-0.234
4/21/2023 16:05:25.100,-0.152,-0.492,-0.266
4/21/2023 16:05:25.110,-0.18,-0.527,-0.332
4/21/2023 16:05:25.120,-0.172,-0.73,-0.332
4/21/2023 16:05:25.130,-0.078,-1.023,-0.203
4/21/2023 16:05:25.140,0.078,-1.238,-0.059
4/21/2023 16:05:25.150,0.184,-1.195,-0.082
4/21/2023 16:05:25.160,0.172,-0.992,-0.141
4/21/2023 16:05:25.170,0.082,-0.758,-0.18
4/21/2023 16:05:25.180,-0.027,-0.578,-0.203
4/21/2023 16:05:25.190,-0.137,-0.488,-0.215
4/21/2023 16:05:25.200,-0.254,-0.504,-0.215
4/21/2023 16:05:25.210,-0.336,-0.629,-0.168
4/21/2023 16:05:25.220,-0.344,-0.762,-0.137
4/21/2023 16:05:25.230,-0.277,-0.828,-0.117
4/21/2023 16:05:25.240,-0.199,-0.805,-0.105
4/21/2023 16:05:25.250,-0.113,-0.73,-0.094
4/21/2023 16:05:25.260,-0.031,-0.637,-0.059
4/21/2023 16:05:25.270,0.063,-0.527,-0.055
4/21/2023 16:05:25.280,0.141,-0.457,-0.043
4/21/2023 16:05:25.290,0.188,-0.449,-0.031
4/21/2023 16:05:25.300,0.211,-0.523,-0.047
4/21/2023 16:05:25.310,0.211,-0.656,-0.07
4/21/2023 16:05:25.320,0.18,-0.832,-0.082
4/21/2023 16:05:25.330,0.141,-0.98,-0.098
4/21/2023 16:05:25.340,0.113,-1.047,-0.102
4/21/2023 16:05:25.350,0.023,-1.043,-0.102
4/21/2023 16:05:25.360,-0.082,-1.027,-0.09
4/21/2023 16:05:25.370,-0.156,-1.047,-0.023
4/21/2023 16:05:25.380,-0.117,-1.094,0.098
4/21/2023 16:05:25.390,0.02,-1.105,0.23
4/21/2023 16:05:25.400,0.207,-1.07,0.316
4/21/2023 16:05:25.410,0.406,-1.02,0.313
4/21/2023 16:05:25.420,0.582,-1.008,0.289
4/21/2023 16:05:25.430,0.75,-1.02,0.273
4/21/2023 16:05:25.440,0.813,-1.051,0.266
4/21/2023 16:05:25.450,0.719,-1.094,0.195
4/21/2023 16:05:25.460,0.465,-1.18,0.051
4/21/2023 16:05:25.470,0.156,-1.336,-0.176
4/21/2023 16:05:25.480,-0.105,-1.52,-0.527
4/21/2023 16:05:25.490,-0.313,-1.711,-0.871
4/21/2023 16:05:25.500,-0.496,-1.844,-0.992
4/21/2023 16:05:25.510,-0.578,-1.844,-0.938
4/21/2023 16:05:25.520,-0.633,-1.707,-0.871
4/21/2023 16:05:25.530,-0.691,-1.543,-0.676
4/21/2023 16:05:25.540,-0.707,-1.383,-0.426
4/21/2023 16:05:25.550,-0.668,-1.18,-0.348
4/21/2023 16:05:25.560,-0.633,-0.984,-0.406
4/21/2023 16:05:25.570,-0.531,-0.895,-0.449
4/21/2023 16:05:25.580,-0.348,-0.98,-0.359
4/21/2023 16:05:25.590,-0.164,-1.176,-0.246
4/21/2023 16:05:25.600,-0.031,-1.371,-0.188
4/21/2023 16:05:25.610,0.047,-1.461,-0.191
4/21/2023 16:05:25.620,0.105,-1.406,-0.242
4/21/2023 16:05:25.630,0.184,-1.273,-0.238
4/21/2023 16:05:25.640,0.262,-1.121,-0.168
4/21/2023 16:05:25.650,0.289,-0.973,-0.09
4/21/2023 16:05:25.660,0.266,-0.82,-0.043
4/21/2023 16:05:25.670,0.23,-0.672,-0.016
4/21/2023 16:05:25.680,0.188,-0.543,0.004
4/21/2023 16:05:25.690,0.164,-0.441,0.023
4/21/2023 16:05:25.700,0.133,-0.379,0.055
4/21/2023 16:05:25.710,0.086,-0.348,0.055
4/21/2023 16:05:25.720,0.027,-0.34,0.035
4/21/2023 16:05:25.730,-0.031,-0.371,0.039
4/21/2023 16:05:25.740,-0.09,-0.473,0.063
4/21/2023 16:05:25.750,-0.121,-0.602,0.125
4/21/2023 16:05:25.760,-0.105,-0.707,0.168
4/21/2023 16:05:25.770,-0.055,-0.77,0.184
4/21/2023 16:05:25.780,0.02,-0.809,0.191
4/21/2023 16:05:25.790,0.109,-0.844,0.199
4/21/2023 16:05:25.800,0.184,-0.855,0.219
4/21/2023 16:05:25.810,0.219,-0.836,0.156
4/21/2023 16:05:25.820,0.258,-0.793,0.039
4/21/2023 16:05:25.830,0.309,-0.773,0
4/21/2023 16:05:25.840,0.336,-0.813,0.078
4/21/2023 16:05:25.850,0.301,-0.875,0.098
4/21/2023 16:05:25.860,0.238,-0.906,0.004
4/21/2023 16:05:25.870,0.195,-0.965,-0.055
4/21/2023 16:05:25.880,0.152,-1.156,0.063
4/21/2023 16:05:25.890,0.02,-1.457,0.16
4/21/2023 16:05:25.900,-0.176,-1.758,0.137
4/21/2023 16:05:25.910,-0.336,-1.945,0.059
4/21/2023 16:05:25.920,-0.398,-1.887,-0.047
4/21/2023 16:05:25.930,-0.402,-1.691,-0.113
4/21/2023 16:05:25.940,-0.359,-1.465,-0.262
4/21/2023 16:05:25.950,-0.309,-1.363,-0.434
4/21/2023 16:05:25.960,-0.277,-1.453,-0.531
4/21/2023 16:05:25.970,-0.34,-1.625,-0.574
4/21/2023 16:05:25.980,-0.461,-1.777,-0.688
4/21/2023 16:05:25.990,-0.484,-1.809,-0.75
4/21/2023 16:05:26.000,-0.371,-1.676,-0.621
4/21/2023 16:05:26.010,-0.156,-1.395,-0.348
4/21/2023 16:05:26.020,0.047,-1.031,-0.152
4/21/2023 16:05:26.030,0.141,-0.664,-0.102
4/21/2023 16:05:26.040,0.129,-0.375,-0.156
4/21/2023 16:05:26.050,0.094,-0.238,-0.293
4/21/2023 16:05:26.060,0.109,-0.309,-0.352
4/21/2023 16:05:26.070,0.137,-0.605,-0.215
4/21/2023 16:05:26.080,0.09,-0.996,-0.023
4/21/2023 16:05:26.090,-0.012,-1.246,-0.02
4/21/2023 16:05:26.100,-0.109,-1.203,-0.195
4/21/2023 16:05:26.110,-0.176,-1.047,-0.293
4/21/2023 16:05:26.120,-0.23,-0.895,-0.27
4/21/2023 16:05:26.130,-0.277,-0.805,-0.246
4/21/2023 16:05:26.140,-0.289,-0.766,-0.227
4/21/2023 16:05:26.150,-0.262,-0.758,-0.164
4/21/2023 16:05:26.160,-0.207,-0.742,-0.102
4/21/2023 16:05:26.170,-0.152,-0.695,-0.047
4/21/2023 16:05:26.180,-0.086,-0.621,-0.016
4/21/2023 16:05:26.190,-0.02,-0.539,-0.012
4/21/2023 16:05:26.200,0.051,-0.484,-0.004
4/21/2023 16:05:26.210,0.121,-0.469,0.004
4/21/2023 16:05:26.220,0.18,-0.516,0.012
4/21/2023 16:05:26.230,0.227,-0.598,0
4/21/2023 16:05:26.240,0.23,-0.711,-0.039
4/21/2023 16:05:26.250,0.219,-0.801,-0.086
4/21/2023 16:05:26.260,0.191,-0.852,-0.117
4/21/2023 16:05:26.270,0.145,-0.863,-0.133
4/21/2023 16:05:26.280,0.043,-0.82,-0.137
4/21/2023 16:05:26.290,-0.109,-0.789,-0.152
4/21/2023 16:05:26.300,-0.238,-0.805,-0.137
4/21/2023 16:05:26.310,-0.301,-0.918,-0.051
4/21/2023 16:05:26.320,-0.242,-1.102,0.098
4/21/2023 16:05:26.330,-0.098,-1.223,0.18
4/21/2023 16:05:26.340,0.074,-1.219,0.168
4/21/2023 16:05:26.350,0.305,-1.137,0.117
4/21/2023 16:05:26.360,0.551,-1.07,0.113
4/21/2023 16:05:26.370,0.762,-1.047,0.184
4/21/2023 16:05:26.380,0.895,-1.051,0.281
4/21/2023 16:05:26.390,0.902,-1.086,0.289
4/21/2023 16:05:26.400,0.754,-1.164,0.16
4/21/2023 16:05:26.410,0.52,-1.266,-0.117
4/21/2023 16:05:26.420,0.313,-1.457,-0.359
4/21/2023 16:05:26.430,0.141,-1.75,-0.414
4/21/2023 16:05:26.440,-0.012,-1.938,-0.465
4/21/2023 16:05:26.450,-0.188,-1.859,-0.688
4/21/2023 16:05:26.460,-0.449,-1.703,-0.797
4/21/2023 16:05:26.470,-0.703,-1.605,-0.68
4/21/2023 16:05:26.480,-0.824,-1.496,-0.527
4/21/2023 16:05:26.490,-0.77,-1.316,-0.422
4/21/2023 16:05:26.500,-0.645,-1.094,-0.355
4/21/2023 16:05:26.510,-0.484,-0.879,-0.305
4/21/2023 16:05:26.520,-0.309,-0.738,-0.285
4/21/2023 16:05:26.530,-0.141,-0.773,-0.246
4/21/2023 16:05:26.540,-0.039,-0.977,-0.211
4/21/2023 16:05:26.550,-0.016,-1.242,-0.223
4/21/2023 16:05:26.560,-0.004,-1.457,-0.254
4/21/2023 16:05:26.570,0.043,-1.555,-0.234
4/21/2023 16:05:26.580,0.125,-1.477,-0.195
4/21/2023 16:05:26.590,0.227,-1.262,-0.145
4/21/2023 16:05:26.600,0.301,-1.008,-0.078
4/21/2023 16:05:26.610,0.309,-0.793,-0.031
4/21/2023 16:05:26.620,0.227,-0.629,-0.023
4/21/2023 16:05:26.630,0.105,-0.523,-0.039
4/21/2023 16:05:26.640,-0.004,-0.465,-0.035
4/21/2023 16:05:26.650,-0.078,-0.441,-0.035
4/21/2023 16:05:26.660,-0.121,-0.445,-0.039
4/21/2023 16:05:26.670,-0.137,-0.473,-0.027
4/21/2023 16:05:26.680,-0.137,-0.543,0.027
4/21/2023 16:05:26.690,-0.125,-0.652,0.086
4/21/2023 16:05:26.700,-0.109,-0.727,0.051
4/21/2023 16:05:26.710,-0.07,-0.754,0.02
4/21/2023 16:05:26.720,-0.023,-0.789,0.047
4/21/2023 16:05:26.730,0.008,-0.852,0.148
4/21/2023 16:05:26.740,0.016,-0.902,0.227
4/21/2023 16:05:26.750,0.031,-0.914,0.254
4/21/2023 16:05:26.760,0.074,-0.879,0.262
4/21/2023 16:05:26.770,0.133,-0.832,0.258
4/21/2023 16:05:26.780,0.207,-0.781,0.18
4/21/2023 16:05:26.790,0.301,-0.738,0.117
4/21/2023 16:05:26.800,0.383,-0.75,0.16
4/21/2023 16:05:26.810,0.426,-0.781,0.16
4/21/2023 16:05:26.820,0.395,-0.836,0.051
4/21/2023 16:05:26.830,0.332,-0.949,-0.004
4/21/2023 16:05:26.840,0.25,-1.184,0.109
4/21/2023 16:05:26.850,0.105,-1.492,0.25
4/21/2023 16:05:26.860,-0.121,-1.719,0.219
4/21/2023 16:05:26.870,-0.375,-1.82,0.094
4/21/2023 16:05:26.880,-0.551,-1.82,-0.031
4/21/2023 16:05:26.890,-0.617,-1.727,-0.168
4/21/2023 16:05:26.900,-0.586,-1.582,-0.352
4/21/2023 16:05:26.910,-0.457,-1.48,-0.52
4/21/2023 16:05:26.920,-0.355,-1.484,-0.566
4/21/2023 16:05:26.930,-0.309,-1.531,-0.617
4/21/2023 16:05:26.940,-0.309,-1.566,-0.73
4/21/2023 16:05:26.950,-0.262,-1.555,-0.797
4/21/2023 16:05:26.960,-0.211,-1.512,-0.727
4/21/2023 16:05:26.970,-0.152,-1.402,-0.523
4/21/2023 16:05:26.980,-0.078,-1.199,-0.273
4/21/2023 16:05:26.990,-0.016,-0.914,-0.109
4/21/2023 16:05:27.000,0.023,-0.629,-0.094
4/21/2023 16:05:27.010,0.074,-0.395,-0.207
4/21/2023 16:05:27.020,0.141,-0.262,-0.332
4/21/2023 16:05:27.030,0.184,-0.281,-0.313
4/21/2023 16:05:27.040,0.125,-0.449,-0.168
4/21/2023 16:05:27.050,-0.012,-0.695,-0.027
4/21/2023 16:05:27.060,-0.152,-0.91,-0.012
4/21/2023 16:05:27.070,-0.211,-0.969,-0.152
4/21/2023 16:05:27.080,-0.246,-0.949,-0.277
4/21/2023 16:05:27.090,-0.27,-0.941,-0.277
4/21/2023 16:05:27.100,-0.266,-0.945,-0.219
4/21/2023 16:05:27.110,-0.246,-0.918,-0.164
4/21/2023 16:05:27.120,-0.211,-0.84,-0.129
4/21/2023 16:05:27.130,-0.156,-0.738,-0.109
4/21/2023 16:05:27.140,-0.082,-0.621,-0.086
4/21/2023 16:05:27.150,0,-0.516,-0.07
4/21/2023 16:05:27.160,0.09,-0.457,-0.063
4/21/2023 16:05:27.170,0.191,-0.48,-0.035
4/21/2023 16:05:27.180,0.273,-0.582,-0.016
4/21/2023 16:05:27.190,0.305,-0.723,-0.012
4/21/2023 16:05:27.200,0.281,-0.863,-0.043
4/21/2023 16:05:27.210,0.223,-0.973,-0.063
4/21/2023 16:05:27.220,0.148,-1.02,-0.07
4/21/2023 16:05:27.230,0.051,-0.996,-0.066
4/21/2023 16:05:27.240,-0.023,-0.938,-0.059
4/21/2023 16:05:27.250,-0.078,-0.887,-0.012
4/21/2023 16:05:27.260,-0.094,-0.895,0.027
4/21/2023 16:05:27.270,-0.035,-0.965,0.074
4/21/2023 16:05:27.280,0.066,-1.059,0.121
4/21/2023 16:05:27.290,0.211,-1.156,0.141
4/21/2023 16:05:27.300,0.395,-1.203,0.168
4/21/2023 16:05:27.310,0.605,-1.18,0.211
4/21/2023 16:05:27.320,0.801,-1.109,0.27
4/21/2023 16:05:27.330,0.934,-1.059,0.297
4/21/2023 16:05:27.340,0.918,-1.082,0.266
4/21/2023 16:05:27.350,0.734,-1.164,0.137
4/21/2023 16:05:27.360,0.492,-1.266,-0.035
4/21/2023 16:05:27.370,0.258,-1.359,-0.242
4/21/2023 16:05:27.380,0.043,-1.449,-0.449
4/21/2023 16:05:27.390,-0.164,-1.516,-0.602
4/21/2023 16:05:27.400,-0.363,-1.527,-0.695
4/21/2023 16:05:27.410,-0.586,-1.531,-0.723
4/21/2023 16:05:27.420,-0.797,-1.535,-0.727
4/21/2023 16:05:27.430,-0.875,-1.492,-0.699
4/21/2023 16:05:27.440,-0.785,-1.441,-0.586
4/21/2023 16:05:27.450,-0.609,-1.355,-0.441
4/21/2023 16:05:27.460,-0.414,-1.207,-0.355
4/21/2023 16:05:27.470,-0.25,-1.07,-0.367
4/21/2023 16:05:27.480,-0.121,-1.059,-0.355
4/21/2023 16:05:27.490,-0.012,-1.184,-0.266
4/21/2023 16:05:27.500,0.043,-1.359,-0.188
4/21/2023 16:05:27.510,0.074,-1.484,-0.168
4/21/2023 16:05:27.520,0.113,-1.453,-0.188
4/21/2023 16:05:27.530,0.16,-1.285,-0.18
4/21/2023 16:05:27.540,0.199,-1.074,-0.125
4/21/2023 16:05:27.550,0.207,-0.875,-0.098
4/21/2023 16:05:27.560,0.176,-0.703,-0.098
4/21/2023 16:05:27.570,0.133,-0.566,-0.098
4/21/2023 16:05:27.580,0.102,-0.457,-0.086
4/21/2023 16:05:27.590,0.094,-0.391,-0.047
4/21/2023 16:05:27.600,0.094,-0.348,0.016
4/21/2023 16:05:27.610,0.078,-0.348,0.07
4/21/2023 16:05:27.620,0.066,-0.402,0.109
4/21/2023 16:05:27.630,0.035,-0.488,0.152
4/21/2023 16:05:27.640,0.008,-0.555,0.125
4/21/2023 16:05:27.650,-0.004,-0.574,0.055
4/21/2023 16:05:27.660,0.02,-0.609,0.012
4/21/2023 16:05:27.670,0.082,-0.703,0.066
4/21/2023 16:05:27.680,0.172,-0.82,0.18
4/21/2023 16:05:27.690,0.258,-0.887,0.23
4/21/2023 16:05:27.700,0.297,-0.887,0.188
4/21/2023 16:05:27.710,0.277,-0.816,0.078
4/21/2023 16:05:27.720,0.246,-0.754,-0.02
4/21/2023 16:05:27.730,0.227,-0.773,0.023
4/21/2023 16:05:27.740,0.215,-0.867,0.168
4/21/2023 16:05:27.750,0.195,-0.926,0.16
4/21/2023 16:05:27.760,0.148,-0.934,0.023
4/21/2023 16:05:27.770,0.098,-1.02,0.004
4/21/2023 16:05:27.780,0.047,-1.219,0.109
4/21/2023 16:05:27.790,-0.039,-1.48,0.199
4/21/2023 16:05:27.800,-0.148,-1.695,0.148
4/21/2023 16:05:27.810,-0.234,-1.828,0.055
4/21/2023 16:05:27.820,-0.277,-1.832,-0.07
4/21/2023 16:05:27.830,-0.273,-1.734,-0.195
4/21/2023 16:05:27.840,-0.227,-1.602,-0.344
4/21/2023 16:05:27.850,-0.18,-1.574,-0.41
4/21/2023 16:05:27.860,-0.195,-1.719,-0.375
4/21/2023 16:05:27.870,-0.254,-1.844,-0.371
4/21/2023 16:05:27.880,-0.34,-1.797,-0.41
4/21/2023 16:05:27.890,-0.359,-1.594,-0.457
4/21/2023 16:05:27.900,-0.254,-1.32,-0.434
4/21/2023 16:05:27.910,-0.055,-1.063,-0.344
4/21/2023 16:05:27.920,0.133,-0.809,-0.188
4/21/2023 16:05:27.930,0.184,-0.57,-0.07
