------------ Data File Created By ActiGraph GT3X+ ActiLife v6.13.4 Firmware v1.7.2 date format M/d/yyyy at 100 Hz  Filter Normal -----------
Serial Number: TAS1H50200609
Start Time 18:29:00
Start Date 4/26/2023
Epoch Period (hh:mm:ss) 00:00:00
Download Time 18:44:33
Download Date 4/26/2023
Current Memory Address: 0
Current Battery Voltage: 4.18     Mode = 12
--------------------------------------------------
Timestamp,Accelerometer X,Accelerometer Y,Accelerometer Z
4/26/2023 18:29:00.000,-1.707,-1.281,-0.848
4/26/2023 18:29:00.010,-1.586,-0.941,-0.875
4/26/2023 18:29:00.020,-1.238,-0.43,-0.563
4/26/2023 18:29:00.030,-0.984,-0.125,-0.418
4/26/2023 18:29:00.040,-0.605,0.055,-0.566
4/26/2023 18:29:00.050,-0.484,-0.574,-0.336
4/26/2023 18:29:00.060,-0.414,-0.961,-0.074
4/26/2023 18:29:00.070,-0.289,-0.953,0.063
4/26/2023 18:29:00.080,-0.121,-0.945,0.133
4/26/2023 18:29:00.090,-0.055,-0.969,0.152
4/26/2023 18:29:00.100,-0.121,-0.883,0.133
4/26/2023 18:29:00.110,-0.203,-0.734,0.086
4/26/2023 18:29:00.120,-0.289,-0.551,0.043
4/26/2023 18:29:00.130,-0.352,-0.379,-0.008
4/26/2023 18:29:00.140,-0.426,-0.254,-0.051
4/26/2023 18:29:00.150,-0.512,-0.137,-0.051
4/26/2023 18:29:00.160,-0.594,-0.082,-0.012
4/26/2023 18:29:00.170,-0.605,-0.176,0.035
4/26/2023 18:29:00.180,-0.723,-0.219,0.031
4/26/2023 18:29:00.190,-0.863,-0.176,0
4/26/2023 18:29:00.200,-0.996,-0.137,-0.043
4/26/2023 18:29:00.210,-1.125,-0.113,-0.063
4/26/2023 18:29:00.220,-1.254,-0.094,-0.074
4/26/2023 18:29:00.230,-1.414,-0.125,-0.051
4/26/2023 18:29:00.240,-1.617,-0.18,0.02
4/26/2023 18:29:00.250,-1.879,-0.227,0.039
4/26/2023 18:29:00.260,-2.184,-0.121,-0.043
4/26/2023 18:29:00.270,-2.492,0.16,-0.113
4/26/2023 18:29:00.280,-2.816,0.453,-0.293
4/26/2023 18:29:00.290,-3.125,0.809,-0.563
4/26/2023 18:29:00.300,-3.398,1.184,-0.797
4/26/2023 18:29:00.310,-3.066,1.496,-0.793
4/26/2023 18:29:00.320,-1.828,1.863,-0.758
4/26/2023 18:29:00.330,-1.219,2.441,-1.191
4/26/2023 18:29:00.340,-1.324,3.188,-1.223
4/26/2023 18:29:00.350,-1.27,3.125,-0.633
4/26/2023 18:29:00.360,-1.402,2.563,-0.375
4/26/2023 18:29:00.370,-1.492,2.148,-0.211
4/26/2023 18:29:00.380,-1.41,2.016,-0.109
4/26/2023 18:29:00.390,-1.41,1.738,-0.133
4/26/2023 18:29:00.400,-2.512,-0.676,-0.246
4/26/2023 18:29:00.410,-1.559,-2.297,-0.004
4/26/2023 18:29:00.420,-0.324,-1.91,0.992
4/26/2023 18:29:00.430,-1.047,-0.254,1.012
4/26/2023 18:29:00.440,-1.855,1.012,0.266
4/26/2023 18:29:00.450,-1.5,1.063,-0.051
4/26/2023 18:29:00.460,-1.238,0.586,0.156
4/26/2023 18:29:00.470,-0.996,0.613,0.191
4/26/2023 18:29:00.480,-0.91,0.789,-0.461
4/26/2023 18:29:00.490,-1.258,0.527,-0.957
4/26/2023 18:29:00.500,-1.582,0.613,-1.078
4/26/2023 18:29:00.510,-1.516,0.703,-0.738
4/26/2023 18:29:00.520,-1.223,0.609,-0.215
4/26/2023 18:29:00.530,-1.02,0.492,-0.082
4/26/2023 18:29:00.540,-0.945,0.453,-0.297
4/26/2023 18:29:00.550,-0.988,0.363,-0.355
4/26/2023 18:29:00.560,-0.965,0.23,-0.109
4/26/2023 18:29:00.570,-1,0.059,-0.012
4/26/2023 18:29:00.580,-1.063,-0.008,-0.121
4/26/2023 18:29:00.590,-1.066,-0.063,-0.176
4/26/2023 18:29:00.600,-1.047,-0.043,-0.258
4/26/2023 18:29:00.610,-1.059,-0.102,-0.324
4/26/2023 18:29:00.620,-1.055,-0.059,-0.242
4/26/2023 18:29:00.630,-1.051,0.008,-0.145
4/26/2023 18:29:00.640,-1.063,0.035,-0.16
4/26/2023 18:29:00.650,-1.047,0.059,-0.195
4/26/2023 18:29:00.660,-1.02,0.078,-0.25
4/26/2023 18:29:00.670,-0.977,0.094,-0.285
4/26/2023 18:29:00.680,-0.965,0.059,-0.258
4/26/2023 18:29:00.690,-1.02,0.004,-0.211
4/26/2023 18:29:00.700,-1.043,-0.027,-0.145
4/26/2023 18:29:00.710,-1.031,-0.023,-0.121
4/26/2023 18:29:00.720,-1.02,-0.039,-0.129
4/26/2023 18:29:00.730,-1.027,-0.023,-0.137
4/26/2023 18:29:00.740,-0.973,-0.039,-0.137
4/26/2023 18:29:00.750,-0.938,-0.082,-0.129
4/26/2023 18:29:00.760,-0.965,-0.133,-0.105
4/26/2023 18:29:00.770,-1.016,-0.172,-0.102
4/26/2023 18:29:00.780,-1.066,-0.188,-0.063
4/26/2023 18:29:00.790,-1.094,-0.188,-0.039
4/26/2023 18:29:00.800,-1.105,-0.16,-0.051
4/26/2023 18:29:00.810,-1.133,-0.129,-0.055
4/26/2023 18:29:00.820,-1.172,-0.109,-0.066
4/26/2023 18:29:00.830,-1.25,-0.102,-0.074
4/26/2023 18:29:00.840,-1.313,-0.125,-0.066
4/26/2023 18:29:00.850,-1.375,-0.168,-0.051
4/26/2023 18:29:00.860,-1.383,-0.188,0
4/26/2023 18:29:00.870,-1.379,-0.203,0.078
4/26/2023 18:29:00.880,-1.398,-0.215,0.129
4/26/2023 18:29:00.890,-1.492,-0.305,0.082
4/26/2023 18:29:00.900,-1.582,-0.402,-0.043
4/26/2023 18:29:00.910,-1.672,-0.527,-0.18
4/26/2023 18:29:00.920,-1.738,-0.664,-0.223
4/26/2023 18:29:00.930,-1.883,-0.895,-0.184
4/26/2023 18:29:00.940,-2.164,-1.063,-0.199
4/26/2023 18:29:00.950,-2.137,-1.098,-0.25
4/26/2023 18:29:00.960,-2.199,-1.035,-0.25
4/26/2023 18:29:00.970,-2.539,-0.973,-0.191
4/26/2023 18:29:00.980,-2.648,-0.441,-0.297
4/26/2023 18:29:00.990,-2.633,0.309,-0.641
4/26/2023 18:29:01.000,-2.711,0.117,-0.582
4/26/2023 18:29:01.010,-2.488,-0.418,-0.602
4/26/2023 18:29:01.020,-2,-0.633,-0.688
4/26/2023 18:29:01.030,-1.699,-0.605,-0.785
4/26/2023 18:29:01.040,-1.355,-0.527,-0.598
4/26/2023 18:29:01.050,-0.859,0,-0.492
4/26/2023 18:29:01.060,-0.656,-0.047,-0.586
4/26/2023 18:29:01.070,-0.59,-0.734,-0.195
4/26/2023 18:29:01.080,-0.477,-0.922,-0.004
4/26/2023 18:29:01.090,-0.266,-0.859,0.031
4/26/2023 18:29:01.100,-0.066,-0.824,0.027
4/26/2023 18:29:01.110,-0.027,-0.809,-0.012
4/26/2023 18:29:01.120,-0.098,-0.723,-0.059
4/26/2023 18:29:01.130,-0.242,-0.586,-0.094
4/26/2023 18:29:01.140,-0.375,-0.363,-0.133
4/26/2023 18:29:01.150,-0.379,-0.258,-0.141
4/26/2023 18:29:01.160,-0.48,-0.148,-0.137
4/26/2023 18:29:01.170,-0.488,-0.145,-0.094
4/26/2023 18:29:01.180,-0.523,-0.102,-0.059
4/26/2023 18:29:01.190,-0.594,-0.055,-0.047
4/26/2023 18:29:01.200,-0.688,-0.055,-0.043
4/26/2023 18:29:01.210,-0.805,-0.066,-0.039
4/26/2023 18:29:01.220,-0.914,-0.074,-0.055
4/26/2023 18:29:01.230,-1.039,-0.082,-0.086
4/26/2023 18:29:01.240,-1.172,-0.09,-0.105
4/26/2023 18:29:01.250,-1.332,-0.102,-0.105
4/26/2023 18:29:01.260,-1.535,-0.156,-0.09
4/26/2023 18:29:01.270,-1.797,-0.184,-0.066
4/26/2023 18:29:01.280,-2.09,-0.102,-0.09
4/26/2023 18:29:01.290,-2.414,0.137,-0.18
4/26/2023 18:29:01.300,-2.734,0.504,-0.391
4/26/2023 18:29:01.310,-2.996,0.883,-0.625
4/26/2023 18:29:01.320,-3.129,1.145,-0.82
4/26/2023 18:29:01.330,-2.816,1.301,-0.719
4/26/2023 18:29:01.340,-2.012,1.598,-0.559
4/26/2023 18:29:01.350,-1.625,2.27,-0.781
4/26/2023 18:29:01.360,-1.453,3.059,-0.832
4/26/2023 18:29:01.370,-1.328,3.184,-0.488
4/26/2023 18:29:01.380,-1.414,2.734,-0.273
4/26/2023 18:29:01.390,-1.41,2.281,-0.16
4/26/2023 18:29:01.400,-1.379,2.094,-0.043
4/26/2023 18:29:01.410,-1.34,1.633,-0.031
4/26/2023 18:29:01.420,-2.414,-0.449,-0.637
4/26/2023 18:29:01.430,-1.621,-2.387,-0.426
4/26/2023 18:29:01.440,-0.504,-2.246,0.453
4/26/2023 18:29:01.450,-1.348,-0.063,0.766
4/26/2023 18:29:01.460,-2.09,1.453,0.508
4/26/2023 18:29:01.470,-1.676,1.23,0.391
4/26/2023 18:29:01.480,-1.262,0.766,0.281
4/26/2023 18:29:01.490,-0.953,0.617,0.063
4/26/2023 18:29:01.500,-0.848,0.684,-0.469
4/26/2023 18:29:01.510,-1.102,0.473,-0.777
4/26/2023 18:29:01.520,-1.387,0.633,-0.855
4/26/2023 18:29:01.530,-1.484,0.855,-0.762
4/26/2023 18:29:01.540,-1.258,0.594,-0.242
4/26/2023 18:29:01.550,-0.992,0.453,-0.164
4/26/2023 18:29:01.560,-0.906,0.438,-0.191
4/26/2023 18:29:01.570,-1.004,0.355,-0.156
4/26/2023 18:29:01.580,-1.043,0.246,-0.195
4/26/2023 18:29:01.590,-1.063,0.023,-0.156
4/26/2023 18:29:01.600,-1.086,0.129,-0.203
4/26/2023 18:29:01.610,-1.059,0.121,-0.32
4/26/2023 18:29:01.620,-1.059,-0.043,-0.301
4/26/2023 18:29:01.630,-1.086,-0.004,-0.277
4/26/2023 18:29:01.640,-1.078,0.035,-0.254
4/26/2023 18:29:01.650,-1.07,0.012,-0.223
4/26/2023 18:29:01.660,-1.082,0.023,-0.289
4/26/2023 18:29:01.670,-1.004,0.059,-0.32
4/26/2023 18:29:01.680,-0.969,0.117,-0.32
4/26/2023 18:29:01.690,-1.027,0.035,-0.258
4/26/2023 18:29:01.700,-1.086,0.004,-0.203
4/26/2023 18:29:01.710,-1.086,-0.031,-0.184
4/26/2023 18:29:01.720,-1.047,-0.027,-0.176
4/26/2023 18:29:01.730,-1.027,-0.055,-0.148
4/26/2023 18:29:01.740,-0.941,-0.004,-0.129
4/26/2023 18:29:01.750,-0.922,0,-0.105
4/26/2023 18:29:01.760,-0.93,0,-0.117
4/26/2023 18:29:01.770,-0.949,0,-0.145
4/26/2023 18:29:01.780,-0.93,-0.039,-0.156
4/26/2023 18:29:01.790,-0.918,-0.082,-0.156
4/26/2023 18:29:01.800,-0.93,-0.082,-0.148
4/26/2023 18:29:01.810,-0.961,-0.078,-0.145
4/26/2023 18:29:01.820,-1.023,-0.086,-0.164
4/26/2023 18:29:01.830,-1.07,-0.078,-0.168
4/26/2023 18:29:01.840,-1.121,-0.059,-0.148
4/26/2023 18:29:01.850,-1.207,-0.094,-0.133
4/26/2023 18:29:01.860,-1.281,-0.113,-0.105
4/26/2023 18:29:01.870,-1.324,-0.125,-0.07
4/26/2023 18:29:01.880,-1.352,-0.133,-0.023
4/26/2023 18:29:01.890,-1.367,-0.172,0.063
4/26/2023 18:29:01.900,-1.398,-0.203,0.109
4/26/2023 18:29:01.910,-1.504,-0.293,0.055
4/26/2023 18:29:01.920,-1.641,-0.395,-0.074
4/26/2023 18:29:01.930,-1.758,-0.504,-0.133
4/26/2023 18:29:01.940,-1.836,-0.633,-0.109
4/26/2023 18:29:01.950,-1.969,-0.762,-0.02
4/26/2023 18:29:01.960,-2.219,-0.973,-0.016
4/26/2023 18:29:01.970,-2.242,-1.098,-0.109
4/26/2023 18:29:01.980,-2.188,-1.285,-0.098
4/26/2023 18:29:01.990,-2.582,-1.16,-0.109
4/26/2023 18:29:02.000,-2.801,-0.684,-0.074
4/26/2023 18:29:02.010,-2.691,0.023,-0.551
4/26/2023 18:29:02.020,-2.695,0.383,-0.871
4/26/2023 18:29:02.030,-2.609,-0.191,-0.676
4/26/2023 18:29:02.040,-2.238,-0.84,-0.844
4/26/2023 18:29:02.050,-1.895,-0.824,-0.789
4/26/2023 18:29:02.060,-1.332,-0.5,-0.594
4/26/2023 18:29:02.070,-1.012,-0.105,-0.449
4/26/2023 18:29:02.080,-0.699,0.043,-0.629
4/26/2023 18:29:02.090,-0.539,-0.648,-0.363
4/26/2023 18:29:02.100,-0.445,-1.023,-0.094
4/26/2023 18:29:02.110,-0.258,-1.023,0.02
4/26/2023 18:29:02.120,-0.059,-1,0.086
4/26/2023 18:29:02.130,-0.008,-0.992,0.074
4/26/2023 18:29:02.140,-0.078,-0.91,0.039
4/26/2023 18:29:02.150,-0.188,-0.723,-0.004
4/26/2023 18:29:02.160,-0.273,-0.48,-0.051
4/26/2023 18:29:02.170,-0.387,-0.32,-0.117
4/26/2023 18:29:02.180,-0.574,-0.125,-0.188
4/26/2023 18:29:02.190,-0.566,-0.102,-0.137
4/26/2023 18:29:02.200,-0.527,-0.109,-0.063
4/26/2023 18:29:02.210,-0.586,-0.168,-0.043
4/26/2023 18:29:02.220,-0.715,-0.266,-0.035
4/26/2023 18:29:02.230,-0.855,-0.273,-0.063
4/26/2023 18:29:02.240,-0.977,-0.242,-0.105
4/26/2023 18:29:02.250,-1.109,-0.215,-0.148
4/26/2023 18:29:02.260,-1.309,-0.191,-0.188
4/26/2023 18:29:02.270,-1.551,-0.168,-0.191
4/26/2023 18:29:02.280,-1.828,-0.16,-0.172
4/26/2023 18:29:02.290,-2.141,-0.102,-0.191
4/26/2023 18:29:02.300,-2.5,0.129,-0.277
4/26/2023 18:29:02.310,-2.793,0.477,-0.441
4/26/2023 18:29:02.320,-3.004,0.867,-0.691
4/26/2023 18:29:02.330,-3.07,1.156,-0.906
4/26/2023 18:29:02.340,-2.793,1.355,-0.965
4/26/2023 18:29:02.350,-2.004,1.68,-0.805
4/26/2023 18:29:02.360,-1.535,2.207,-0.824
4/26/2023 18:29:02.370,-1.406,2.906,-0.797
4/26/2023 18:29:02.380,-1.398,3.18,-0.527
4/26/2023 18:29:02.390,-1.551,2.848,-0.281
4/26/2023 18:29:02.400,-1.387,2.375,-0.168
4/26/2023 18:29:02.410,-2.137,1.934,-0.168
4/26/2023 18:29:02.420,-2.656,0.34,-0.273
4/26/2023 18:29:02.430,-1.453,-1.703,0.027
4/26/2023 18:29:02.440,-0.727,-2.137,1.41
4/26/2023 18:29:02.450,-1.738,0.941,0.637
4/26/2023 18:29:02.460,-2.188,1.781,-0.086
4/26/2023 18:29:02.470,-1.621,0.992,0.141
4/26/2023 18:29:02.480,-1.32,0.668,0.285
4/26/2023 18:29:02.490,-0.824,0.852,0.059
4/26/2023 18:29:02.500,-0.648,0.871,-0.352
4/26/2023 18:29:02.510,-0.957,0.41,-0.84
4/26/2023 18:29:02.520,-1.277,0.512,-1.184
4/26/2023 18:29:02.530,-1.391,0.758,-0.625
4/26/2023 18:29:02.540,-1.402,0.883,-0.039
4/26/2023 18:29:02.550,-1.059,0.695,-0.121
4/26/2023 18:29:02.560,-0.969,0.449,-0.285
4/26/2023 18:29:02.570,-1.02,0.363,-0.344
4/26/2023 18:29:02.580,-0.973,0.117,-0.148
4/26/2023 18:29:02.590,-0.996,0.031,-0.07
4/26/2023 18:29:02.600,-1.035,0.004,-0.16
4/26/2023 18:29:02.610,-1.059,-0.031,-0.242
4/26/2023 18:29:02.620,-1.035,-0.082,-0.34
4/26/2023 18:29:02.630,-1.059,-0.086,-0.348
4/26/2023 18:29:02.640,-1.09,0.016,-0.266
4/26/2023 18:29:02.650,-1.098,0.004,-0.156
4/26/2023 18:29:02.660,-1.117,-0.023,-0.156
4/26/2023 18:29:02.670,-1.059,0.008,-0.211
4/26/2023 18:29:02.680,-0.945,0.078,-0.234
4/26/2023 18:29:02.690,-0.98,0.066,-0.242
4/26/2023 18:29:02.700,-1.023,0.027,-0.211
4/26/2023 18:29:02.710,-1.055,-0.035,-0.148
4/26/2023 18:29:02.720,-1.066,-0.07,-0.125
4/26/2023 18:29:02.730,-1.016,-0.086,-0.125
4/26/2023 18:29:02.740,-0.934,-0.074,-0.082
4/26/2023 18:29:02.750,-0.965,-0.07,-0.09
4/26/2023 18:29:02.760,-1.012,-0.082,-0.137
4/26/2023 18:29:02.770,-1.008,-0.078,-0.176
4/26/2023 18:29:02.780,-1,-0.078,-0.152
4/26/2023 18:29:02.790,-1.016,-0.063,-0.102
4/26/2023 18:29:02.800,-1.023,-0.074,-0.051
4/26/2023 18:29:02.810,-1.07,-0.121,-0.035
4/26/2023 18:29:02.820,-1.066,-0.117,-0.055
4/26/2023 18:29:02.830,-1.102,-0.133,-0.074
4/26/2023 18:29:02.840,-1.148,-0.117,-0.086
4/26/2023 18:29:02.850,-1.242,-0.137,-0.094
4/26/2023 18:29:02.860,-1.324,-0.156,-0.082
4/26/2023 18:29:02.870,-1.359,-0.168,-0.004
4/26/2023 18:29:02.880,-1.383,-0.188,0.086
4/26/2023 18:29:02.890,-1.414,-0.227,0.152
4/26/2023 18:29:02.900,-1.5,-0.293,0.125
4/26/2023 18:29:02.910,-1.609,-0.387,-0.016
4/26/2023 18:29:02.920,-1.703,-0.477,-0.113
4/26/2023 18:29:02.930,-1.758,-0.578,-0.121
4/26/2023 18:29:02.940,-1.891,-0.691,-0.121
4/26/2023 18:29:02.950,-2.012,-0.914,-0.227
4/26/2023 18:29:02.960,-2.02,-1.105,-0.25
4/26/2023 18:29:02.970,-2.133,-1.199,-0.262
4/26/2023 18:29:02.980,-2.527,-1.227,-0.246
4/26/2023 18:29:02.990,-2.711,-0.875,-0.172
4/26/2023 18:29:03.000,-2.711,-0.332,-0.32
4/26/2023 18:29:03.010,-2.664,0.277,-0.66
4/26/2023 18:29:03.020,-2.723,-0.004,-0.563
4/26/2023 18:29:03.030,-2.465,-0.598,-0.582
4/26/2023 18:29:03.040,-1.992,-0.738,-0.785
4/26/2023 18:29:03.050,-1.57,-0.492,-0.781
4/26/2023 18:29:03.060,-1.227,-0.402,-0.57
4/26/2023 18:29:03.070,-0.719,0.004,-0.621
4/26/2023 18:29:03.080,-0.629,-0.406,-0.492
4/26/2023 18:29:03.090,-0.586,-0.984,-0.078
4/26/2023 18:29:03.100,-0.379,-1.063,0.043
4/26/2023 18:29:03.110,-0.137,-1.031,0.074
4/26/2023 18:29:03.120,-0.039,-1.02,0.059
4/26/2023 18:29:03.130,-0.098,-0.926,0
4/26/2023 18:29:03.140,-0.215,-0.758,-0.051
4/26/2023 18:29:03.150,-0.355,-0.57,-0.063
4/26/2023 18:29:03.160,-0.434,-0.367,-0.094
4/26/2023 18:29:03.170,-0.41,-0.324,-0.078
4/26/2023 18:29:03.180,-0.445,-0.262,-0.059
4/26/2023 18:29:03.190,-0.516,-0.219,-0.047
4/26/2023 18:29:03.200,-0.574,-0.203,-0.031
4/26/2023 18:29:03.210,-0.672,-0.172,-0.043
4/26/2023 18:29:03.220,-0.801,-0.125,-0.066
4/26/2023 18:29:03.230,-0.93,-0.164,-0.066
4/26/2023 18:29:03.240,-1.055,-0.176,-0.074
4/26/2023 18:29:03.250,-1.195,-0.098,-0.09
4/26/2023 18:29:03.260,-1.359,-0.109,-0.066
4/26/2023 18:29:03.270,-1.605,-0.195,-0.016
4/26/2023 18:29:03.280,-1.918,-0.223,-0.039
4/26/2023 18:29:03.290,-2.297,-0.109,-0.113
4/26/2023 18:29:03.300,-2.645,0.137,-0.223
4/26/2023 18:29:03.310,-3.988,-0.238,-0.32
4/26/2023 18:29:03.320,-2.891,1.516,-0.652
4/26/2023 18:29:03.330,-2.309,1.699,-0.992
4/26/2023 18:29:03.340,-2.176,1.629,-1.137
4/26/2023 18:29:03.350,-1.879,2.199,-1.082
4/26/2023 18:29:03.360,-1.68,2.648,-1.121
4/26/2023 18:29:03.370,-1.379,3.043,-0.926
4/26/2023 18:29:03.380,-1.387,3.168,-0.547
4/26/2023 18:29:03.390,-1.547,2.648,-0.301
4/26/2023 18:29:03.400,-2.402,1.289,-0.172
4/26/2023 18:29:03.410,-2.582,0.184,0.336
4/26/2023 18:29:03.420,-0.887,-1.391,1.023
4/26/2023 18:29:03.430,-0.523,-0.629,0.945
4/26/2023 18:29:03.440,-1.742,1.309,-0.215
4/26/2023 18:29:03.450,-2.051,1.367,-0.383
4/26/2023 18:29:03.460,-1.57,0.617,0.219
4/26/2023 18:29:03.470,-1.34,0.852,0.172
4/26/2023 18:29:03.480,-0.996,0.746,-0.063
4/26/2023 18:29:03.490,-0.746,0.43,-0.43
4/26/2023 18:29:03.500,-0.906,0.125,-0.801
4/26/2023 18:29:03.510,-1.367,0.352,-1.289
4/26/2023 18:29:03.520,-1.785,0.867,-1.07
4/26/2023 18:29:03.530,-1.18,0.746,-0.051
4/26/2023 18:29:03.540,-0.941,0.684,0.078
4/26/2023 18:29:03.550,-0.895,0.379,-0.199
4/26/2023 18:29:03.560,-0.941,0.215,-0.211
4/26/2023 18:29:03.570,-0.996,0.574,-0.113
4/26/2023 18:29:03.580,-1.027,-0.027,-0.086
4/26/2023 18:29:03.590,-1.078,-0.043,-0.227
4/26/2023 18:29:03.600,-1.012,0.031,-0.34
4/26/2023 18:29:03.610,-1.027,0.016,-0.305
4/26/2023 18:29:03.620,-1.074,-0.004,-0.133
4/26/2023 18:29:03.630,-1.121,-0.074,-0.125
4/26/2023 18:29:03.640,-1.145,-0.215,-0.309
4/26/2023 18:29:03.650,-1.02,-0.129,-0.402
4/26/2023 18:29:03.660,-0.961,0.18,-0.41
4/26/2023 18:29:03.670,-1.004,0.16,-0.316
4/26/2023 18:29:03.680,-1.035,0.082,-0.211
4/26/2023 18:29:03.690,-1.055,-0.031,-0.129
4/26/2023 18:29:03.700,-1.066,-0.07,-0.039
4/26/2023 18:29:03.710,-1.074,-0.074,-0.004
4/26/2023 18:29:03.720,-1.02,-0.023,-0.031
4/26/2023 18:29:03.730,-1.012,-0.023,-0.074
4/26/2023 18:29:03.740,-0.977,-0.016,-0.102
4/26/2023 18:29:03.750,-0.953,0.023,-0.152
4/26/2023 18:29:03.760,-0.93,0,-0.172
4/26/2023 18:29:03.770,-0.93,-0.027,-0.195
4/26/2023 18:29:03.780,-0.938,-0.066,-0.191
4/26/2023 18:29:03.790,-0.969,-0.094,-0.18
4/26/2023 18:29:03.800,-0.996,-0.094,-0.152
4/26/2023 18:29:03.810,-1.02,-0.066,-0.094
4/26/2023 18:29:03.820,-1.07,-0.063,-0.059
4/26/2023 18:29:03.830,-1.094,-0.051,-0.039
4/26/2023 18:29:03.840,-1.109,-0.031,-0.035
4/26/2023 18:29:03.850,-1.133,-0.039,-0.059
4/26/2023 18:29:03.860,-1.191,-0.102,-0.105
4/26/2023 18:29:03.870,-1.258,-0.109,-0.145
4/26/2023 18:29:03.880,-1.328,-0.145,-0.152
4/26/2023 18:29:03.890,-1.344,-0.164,-0.098
4/26/2023 18:29:03.900,-1.371,-0.191,0.004
4/26/2023 18:29:03.910,-1.395,-0.207,0.063
4/26/2023 18:29:03.920,-1.496,-0.305,0.039
4/26/2023 18:29:03.930,-1.574,-0.387,-0.063
4/26/2023 18:29:03.940,-1.645,-0.488,-0.148
4/26/2023 18:29:03.950,-1.691,-0.547,-0.168
4/26/2023 18:29:03.960,-1.816,-0.695,-0.121
4/26/2023 18:29:03.970,-2.02,-0.82,-0.133
4/26/2023 18:29:03.980,-2.078,-1.027,-0.164
4/26/2023 18:29:03.990,-2.164,-1.082,-0.152
4/26/2023 18:29:04.000,-2.305,-0.98,-0.148
4/26/2023 18:29:04.010,-2.535,-0.684,-0.098
4/26/2023 18:29:04.020,-2.566,0.008,-0.402
4/26/2023 18:29:04.030,-2.531,0.355,-0.688
4/26/2023 18:29:04.040,-2.473,0.027,-0.574
4/26/2023 18:29:04.050,-2.203,-0.496,-0.555
4/26/2023 18:29:04.060,-1.824,-0.656,-0.594
4/26/2023 18:29:04.070,-1.535,-0.484,-0.656
4/26/2023 18:29:04.080,-1.266,-0.313,-0.523
4/26/2023 18:29:04.090,-0.852,0.25,-0.605
4/26/2023 18:29:04.100,-0.699,-0.281,-0.516
4/26/2023 18:29:04.110,-0.586,-0.949,-0.195
4/26/2023 18:29:04.120,-0.449,-1.02,-0.051
4/26/2023 18:29:04.130,-0.234,-0.941,0.02
4/26/2023 18:29:04.140,-0.098,-0.895,0.039
4/26/2023 18:29:04.150,-0.086,-0.832,0.016
4/26/2023 18:29:04.160,-0.113,-0.703,-0.027
4/26/2023 18:29:04.170,-0.164,-0.535,-0.07
4/26/2023 18:29:04.180,-0.254,-0.355,-0.125
4/26/2023 18:29:04.190,-0.367,-0.227,-0.18
4/26/2023 18:29:04.200,-0.449,-0.109,-0.184
4/26/2023 18:29:04.210,-0.563,-0.004,-0.164
4/26/2023 18:29:04.220,-0.523,-0.125,-0.078
4/26/2023 18:29:04.230,-0.563,-0.18,-0.059
4/26/2023 18:29:04.240,-0.695,-0.176,-0.066
4/26/2023 18:29:04.250,-0.832,-0.164,-0.078
4/26/2023 18:29:04.260,-0.957,-0.168,-0.102
4/26/2023 18:29:04.270,-1.09,-0.176,-0.129
4/26/2023 18:29:04.280,-1.242,-0.172,-0.145
4/26/2023 18:29:04.290,-1.426,-0.164,-0.141
4/26/2023 18:29:04.300,-1.66,-0.176,-0.117
4/26/2023 18:29:04.310,-1.945,-0.16,-0.105
4/26/2023 18:29:04.320,-2.285,-0.016,-0.172
4/26/2023 18:29:04.330,-2.633,0.293,-0.301
4/26/2023 18:29:04.340,-2.926,0.703,-0.5
4/26/2023 18:29:04.350,-3.117,0.984,-0.723
4/26/2023 18:29:04.360,-3,1.086,-0.855
4/26/2023 18:29:04.370,-2.352,1.254,-0.77
4/26/2023 18:29:04.380,-1.664,1.75,-0.746
4/26/2023 18:29:04.390,-1.57,2.59,-0.813
4/26/2023 18:29:04.400,-1.375,3.184,-0.586
4/26/2023 18:29:04.410,-1.469,3.078,-0.305
4/26/2023 18:29:04.420,-1.441,2.559,-0.195
4/26/2023 18:29:04.430,-1.281,2.09,-0.215
4/26/2023 18:29:04.440,-1.211,1.93,-0.266
4/26/2023 18:29:04.450,-1.445,1.602,-0.281
4/26/2023 18:29:04.460,-2.688,-0.168,-0.898
4/26/2023 18:29:04.470,-1.465,-3.121,-0.543
4/26/2023 18:29:04.480,-0.934,-2.852,1.125
4/26/2023 18:29:04.490,-1.254,0.547,1.379
4/26/2023 18:29:04.500,-1.793,1.617,0.781
4/26/2023 18:29:04.510,-1.469,1.309,0.387
4/26/2023 18:29:04.520,-1.16,0.688,0.184
4/26/2023 18:29:04.530,-1,0.801,-0.266
4/26/2023 18:29:04.540,-1.164,0.793,-0.613
4/26/2023 18:29:04.550,-1.418,0.59,-0.746
4/26/2023 18:29:04.560,-1.238,0.688,-0.781
4/26/2023 18:29:04.570,-1.02,0.609,-0.523
4/26/2023 18:29:04.580,-1.117,0.695,-0.199
4/26/2023 18:29:04.590,-1.117,0.539,-0.227
4/26/2023 18:29:04.600,-1.047,0.383,-0.172
4/26/2023 18:29:04.610,-1.078,0.281,-0.27
4/26/2023 18:29:04.620,-1.051,0.156,-0.203
4/26/2023 18:29:04.630,-1.109,0.117,-0.203
4/26/2023 18:29:04.640,-1.078,0.191,-0.336
4/26/2023 18:29:04.650,-1.063,0.074,-0.355
4/26/2023 18:29:04.660,-1.074,0.016,-0.32
4/26/2023 18:29:04.670,-1.074,0.047,-0.305
4/26/2023 18:29:04.680,-1.02,0.07,-0.254
4/26/2023 18:29:04.690,-1.039,0.051,-0.211
4/26/2023 18:29:04.700,-1.063,0.043,-0.242
4/26/2023 18:29:04.710,-1.047,0.066,-0.336
4/26/2023 18:29:04.720,-0.988,0.02,-0.32
4/26/2023 18:29:04.730,-0.98,0.055,-0.309
4/26/2023 18:29:04.740,-1.043,0.043,-0.246
4/26/2023 18:29:04.750,-1.004,0.016,-0.203
4/26/2023 18:29:04.760,-1,0.02,-0.156
4/26/2023 18:29:04.770,-0.996,0.023,-0.105
4/26/2023 18:29:04.780,-0.973,0.027,-0.082
4/26/2023 18:29:04.790,-0.961,0.039,-0.113
4/26/2023 18:29:04.800,-0.957,0.023,-0.152
4/26/2023 18:29:04.810,-0.961,-0.016,-0.156
4/26/2023 18:29:04.820,-0.957,-0.063,-0.168
4/26/2023 18:29:04.830,-0.941,-0.109,-0.172
4/26/2023 18:29:04.840,-0.957,-0.109,-0.16
4/26/2023 18:29:04.850,-0.977,-0.094,-0.137
4/26/2023 18:29:04.860,-1.016,-0.098,-0.148
4/26/2023 18:29:04.870,-1.098,-0.078,-0.188
4/26/2023 18:29:04.880,-1.188,-0.082,-0.195
4/26/2023 18:29:04.890,-1.281,-0.102,-0.188
4/26/2023 18:29:04.900,-1.324,-0.125,-0.133
4/26/2023 18:29:04.910,-1.348,-0.156,-0.027
4/26/2023 18:29:04.920,-1.363,-0.18,0.086
4/26/2023 18:29:04.930,-1.426,-0.223,0.137
4/26/2023 18:29:04.940,-1.539,-0.301,0.074
4/26/2023 18:29:04.950,-1.664,-0.379,-0.043
4/26/2023 18:29:04.960,-1.777,-0.48,-0.098
4/26/2023 18:29:04.970,-1.805,-0.598,-0.121
4/26/2023 18:29:04.980,-1.879,-0.715,-0.066
4/26/2023 18:29:04.990,-2.066,-0.934,-0.094
4/26/2023 18:29:05.000,-2.258,-1.078,-0.184
4/26/2023 18:29:05.010,-2.117,-1.137,-0.191
4/26/2023 18:29:05.020,-2.512,-1.141,-0.18
4/26/2023 18:29:05.030,-2.754,-0.879,-0.137
4/26/2023 18:29:05.040,-2.676,-0.242,-0.395
4/26/2023 18:29:05.050,-2.617,0.273,-0.824
4/26/2023 18:29:05.060,-2.574,-0.063,-0.727
4/26/2023 18:29:05.070,-2.285,-0.594,-0.738
4/26/2023 18:29:05.080,-1.902,-0.598,-0.715
4/26/2023 18:29:05.090,-1.496,-0.227,-0.73
4/26/2023 18:29:05.100,-1.207,-0.145,-0.621
4/26/2023 18:29:05.110,-0.629,0.004,-0.695
4/26/2023 18:29:05.120,-0.59,-0.543,-0.469
4/26/2023 18:29:05.130,-0.57,-0.895,-0.133
4/26/2023 18:29:05.140,-0.371,-0.898,-0.004
4/26/2023 18:29:05.150,-0.129,-0.895,0.094
4/26/2023 18:29:05.160,-0.059,-0.848,0.102
4/26/2023 18:29:05.170,-0.109,-0.738,0.066
4/26/2023 18:29:05.180,-0.176,-0.613,0.051
4/26/2023 18:29:05.190,-0.234,-0.488,0.047
4/26/2023 18:29:05.200,-0.359,-0.379,0
4/26/2023 18:29:05.210,-0.547,-0.082,-0.051
4/26/2023 18:29:05.220,-0.5,-0.137,-0.016
4/26/2023 18:29:05.230,-0.5,-0.207,0.027
4/26/2023 18:29:05.240,-0.578,-0.188,0.047
4/26/2023 18:29:05.250,-0.68,-0.195,0.027
4/26/2023 18:29:05.260,-0.797,-0.102,0.004
4/26/2023 18:29:05.270,-0.906,-0.098,-0.035
4/26/2023 18:29:05.280,-0.992,-0.125,-0.059
4/26/2023 18:29:05.290,-1.094,-0.102,-0.063
4/26/2023 18:29:05.300,-1.234,-0.055,-0.074
4/26/2023 18:29:05.310,-1.402,-0.063,-0.039
4/26/2023 18:29:05.320,-1.641,-0.152,0.023
4/26/2023 18:29:05.330,-1.961,-0.266,0.031
4/26/2023 18:29:05.340,-2.344,-0.215,-0.078
4/26/2023 18:29:05.350,-2.645,0.238,-0.211
4/26/2023 18:29:05.360,-2.844,0.688,-0.422
4/26/2023 18:29:05.370,-3.164,0.816,-0.707
4/26/2023 18:29:05.380,-2.898,1.27,-0.98
4/26/2023 18:29:05.390,-2.211,1.957,-1.133
4/26/2023 18:29:05.400,-1.77,2.156,-0.945
4/26/2023 18:29:05.410,-1.438,2.922,-0.84
4/26/2023 18:29:05.420,-1.293,3.449,-0.645
4/26/2023 18:29:05.430,-1.602,3.117,-0.523
4/26/2023 18:29:05.440,-1.57,2.328,-0.344
4/26/2023 18:29:05.450,-2.691,1.313,-0.215
4/26/2023 18:29:05.460,-1.898,-0.84,-0.684
4/26/2023 18:29:05.470,-0.543,-2.754,0.82
4/26/2023 18:29:05.480,-1.063,-0.105,0.684
4/26/2023 18:29:05.490,-2.348,1.859,-0.168
4/26/2023 18:29:05.500,-2,0.871,0.426
4/26/2023 18:29:05.510,-1.547,0.973,0.383
4/26/2023 18:29:05.520,-1.266,1.227,-0.281
4/26/2023 18:29:05.530,-0.949,0.555,-0.242
4/26/2023 18:29:05.540,-0.598,-0.004,-0.188
4/26/2023 18:29:05.550,-0.762,0.887,-0.703
4/26/2023 18:29:05.560,-1.633,1.43,-1.746
4/26/2023 18:29:05.570,-1.754,0.547,-0.648
4/26/2023 18:29:05.580,-1.09,0.727,0.324
4/26/2023 18:29:05.590,-0.805,0.738,-0.086
4/26/2023 18:29:05.600,-0.879,0.348,-0.309
4/26/2023 18:29:05.610,-0.91,0.383,-0.145
4/26/2023 18:29:05.620,-0.961,0.293,-0.105
4/26/2023 18:29:05.630,-1.063,-0.047,-0.156
4/26/2023 18:29:05.640,-1.082,-0.035,-0.281
4/26/2023 18:29:05.650,-1.016,0.051,-0.395
4/26/2023 18:29:05.660,-1.055,0.016,-0.324
4/26/2023 18:29:05.670,-1.074,0.043,-0.281
4/26/2023 18:29:05.680,-1.113,-0.039,-0.281
4/26/2023 18:29:05.690,-1.07,-0.117,-0.27
4/26/2023 18:29:05.700,-0.992,-0.203,-0.27
4/26/2023 18:29:05.710,-0.945,0.188,-0.207
4/26/2023 18:29:05.720,-1,0.199,-0.234
4/26/2023 18:29:05.730,-1.02,0.176,-0.254
4/26/2023 18:29:05.740,-1.012,-0.004,-0.305
4/26/2023 18:29:05.750,-0.988,0.016,-0.266
4/26/2023 18:29:05.760,-0.984,-0.02,-0.234
4/26/2023 18:29:05.770,-1.004,-0.082,-0.156
4/26/2023 18:29:05.780,-0.988,-0.078,-0.133
4/26/2023 18:29:05.790,-0.961,-0.059,-0.152
4/26/2023 18:29:05.800,-0.988,-0.066,-0.164
4/26/2023 18:29:05.810,-1.008,-0.07,-0.137
4/26/2023 18:29:05.820,-1.012,-0.055,-0.129
4/26/2023 18:29:05.830,-1.016,-0.133,-0.098
4/26/2023 18:29:05.840,-1.016,-0.102,-0.063
4/26/2023 18:29:05.850,-1.051,-0.133,-0.023
4/26/2023 18:29:05.860,-1.082,-0.195,-0.027
4/26/2023 18:29:05.870,-1.074,-0.133,-0.07
4/26/2023 18:29:05.880,-1.121,-0.137,-0.129
4/26/2023 18:29:05.890,-1.191,-0.133,-0.152
4/26/2023 18:29:05.900,-1.277,-0.098,-0.145
4/26/2023 18:29:05.910,-1.352,-0.117,-0.098
4/26/2023 18:29:05.920,-1.387,-0.164,-0.023
4/26/2023 18:29:05.930,-1.422,-0.207,0.082
4/26/2023 18:29:05.940,-1.457,-0.25,0.148
4/26/2023 18:29:05.950,-1.625,-0.359,0.078
4/26/2023 18:29:05.960,-1.738,-0.484,-0.047
4/26/2023 18:29:05.970,-1.777,-0.598,-0.102
4/26/2023 18:29:05.980,-1.852,-0.715,-0.07
4/26/2023 18:29:05.990,-2.055,-0.813,-0.027
4/26/2023 18:29:06.000,-2.348,-0.93,-0.078
4/26/2023 18:29:06.010,-2.355,-1.168,-0.117
4/26/2023 18:29:06.020,-2.348,-1.445,-0.172
4/26/2023 18:29:06.030,-2.496,-1.32,-0.066
4/26/2023 18:29:06.040,-2.594,-0.398,-0.195
4/26/2023 18:29:06.050,-2.684,0.59,-0.793
4/26/2023 18:29:06.060,-2.613,0.406,-0.891
4/26/2023 18:29:06.070,-2.438,-0.531,-0.727
4/26/2023 18:29:06.080,-2.043,-0.852,-0.645
4/26/2023 18:29:06.090,-1.539,-0.477,-0.543
4/26/2023 18:29:06.100,-1.262,-0.496,-0.539
4/26/2023 18:29:06.110,-0.777,-0.105,-0.617
4/26/2023 18:29:06.120,-0.488,-0.422,-0.676
4/26/2023 18:29:06.130,-0.484,-1.035,-0.336
4/26/2023 18:29:06.140,-0.371,-1.191,-0.168
4/26/2023 18:29:06.150,-0.195,-1.145,-0.043
4/26/2023 18:29:06.160,-0.07,-1.055,-0.008
4/26/2023 18:29:06.170,-0.086,-0.895,-0.043
4/26/2023 18:29:06.180,-0.152,-0.684,-0.078
4/26/2023 18:29:06.190,-0.258,-0.504,-0.109
4/26/2023 18:29:06.200,-0.383,-0.387,-0.172
4/26/2023 18:29:06.210,-0.645,-0.145,-0.227
4/26/2023 18:29:06.220,-0.566,-0.254,-0.172
4/26/2023 18:29:06.230,-0.492,-0.246,-0.094
4/26/2023 18:29:06.240,-0.582,-0.313,-0.09
4/26/2023 18:29:06.250,-0.762,-0.336,-0.102
4/26/2023 18:29:06.260,-0.898,-0.293,-0.137
4/26/2023 18:29:06.270,-0.988,-0.23,-0.176
4/26/2023 18:29:06.280,-1.109,-0.195,-0.207
4/26/2023 18:29:06.290,-1.258,-0.152,-0.23
4/26/2023 18:29:06.300,-1.441,-0.109,-0.219
4/26/2023 18:29:06.310,-1.676,-0.133,-0.184
4/26/2023 18:29:06.320,-1.973,-0.184,-0.184
4/26/2023 18:29:06.330,-2.316,-0.188,-0.281
4/26/2023 18:29:06.340,-2.652,0.117,-0.438
4/26/2023 18:29:06.350,-2.848,0.484,-0.551
4/26/2023 18:29:06.360,-2.957,0.863,-0.789
4/26/2023 18:29:06.370,-2.84,1.16,-0.992
4/26/2023 18:29:06.380,-2.363,1.527,-1.008
4/26/2023 18:29:06.390,-1.887,2,-0.949
4/26/2023 18:29:06.400,-1.578,2.742,-0.906
4/26/2023 18:29:06.410,-1.414,3.41,-0.832
4/26/2023 18:29:06.420,-1.598,3.301,-0.598
4/26/2023 18:29:06.430,-1.383,2.711,-0.441
4/26/2023 18:29:06.440,-1.117,2.332,-0.297
4/26/2023 18:29:06.450,-1.191,2.156,-0.246
4/26/2023 18:29:06.460,-2.238,1.328,-0.352
4/26/2023 18:29:06.470,-2.465,-1.98,-0.398
4/26/2023 18:29:06.480,-1.02,-3.582,1.086
4/26/2023 18:29:06.490,-0.992,-0.922,1.91
4/26/2023 18:29:06.500,-1.738,1.762,0.598
4/26/2023 18:29:06.510,-1.762,1.84,0.074
4/26/2023 18:29:06.520,-1.414,1.047,0.117
4/26/2023 18:29:06.530,-1.051,0.992,-0.219
4/26/2023 18:29:06.540,-1.031,0.848,-0.648
4/26/2023 18:29:06.550,-1.285,0.453,-0.879
4/26/2023 18:29:06.560,-1.43,0.703,-1.004
4/26/2023 18:29:06.570,-1.297,0.906,-0.57
4/26/2023 18:29:06.580,-1.172,0.805,-0.137
4/26/2023 18:29:06.590,-0.934,0.461,-0.105
4/26/2023 18:29:06.600,-0.965,0.316,-0.125
4/26/2023 18:29:06.610,-1.043,0.559,-0.227
4/26/2023 18:29:06.620,-1.066,0.254,-0.137
4/26/2023 18:29:06.630,-1.133,0.031,-0.141
4/26/2023 18:29:06.640,-1.109,0.164,-0.332
4/26/2023 18:29:06.650,-1.027,0.051,-0.367
4/26/2023 18:29:06.660,-1.07,0,-0.332
4/26/2023 18:29:06.670,-1.059,0.043,-0.27
4/26/2023 18:29:06.680,-1.07,-0.02,-0.195
4/26/2023 18:29:06.690,-1.074,-0.051,-0.281
4/26/2023 18:29:06.700,-1.07,-0.078,-0.414
4/26/2023 18:29:06.710,-0.965,0.023,-0.418
4/26/2023 18:29:06.720,-0.969,-0.016,-0.344
4/26/2023 18:29:06.730,-1.012,-0.086,-0.238
4/26/2023 18:29:06.740,-1.035,-0.102,-0.184
4/26/2023 18:29:06.750,-1,-0.109,-0.176
4/26/2023 18:29:06.760,-1.023,-0.07,-0.148
4/26/2023 18:29:06.770,-0.988,-0.023,-0.133
4/26/2023 18:29:06.780,-0.98,-0.023,-0.156
4/26/2023 18:29:06.790,-0.961,-0.059,-0.172
4/26/2023 18:29:06.800,-0.965,-0.051,-0.164
4/26/2023 18:29:06.810,-0.93,-0.195,-0.137
4/26/2023 18:29:06.820,-0.941,-0.227,-0.141
4/26/2023 18:29:06.830,-0.965,-0.117,-0.133
4/26/2023 18:29:06.840,-1.027,-0.211,-0.113
4/26/2023 18:29:06.850,-1.09,-0.215,-0.113
4/26/2023 18:29:06.860,-1.117,-0.16,-0.117
4/26/2023 18:29:06.870,-1.125,-0.063,-0.078
4/26/2023 18:29:06.880,-1.18,-0.023,-0.059
4/26/2023 18:29:06.890,-1.293,-0.133,-0.059
4/26/2023 18:29:06.900,-1.352,-0.152,-0.035
4/26/2023 18:29:06.910,-1.395,-0.199,0.008
4/26/2023 18:29:06.920,-1.41,-0.191,0.078
4/26/2023 18:29:06.930,-1.445,-0.215,0.121
4/26/2023 18:29:06.940,-1.566,-0.332,0.031
4/26/2023 18:29:06.950,-1.711,-0.473,-0.098
4/26/2023 18:29:06.960,-1.801,-0.598,-0.156
4/26/2023 18:29:06.970,-1.926,-0.738,-0.113
4/26/2023 18:29:06.980,-2.16,-0.938,-0.105
4/26/2023 18:29:06.990,-2.207,-1.059,-0.16
4/26/2023 18:29:07.000,-2.215,-1.18,-0.168
4/26/2023 18:29:07.010,-2.367,-1.195,-0.133
4/26/2023 18:29:07.020,-2.684,-1.004,-0.172
4/26/2023 18:29:07.030,-2.668,-0.293,-0.547
4/26/2023 18:29:07.040,-2.637,0.563,-0.949
4/26/2023 18:29:07.050,-2.566,0.324,-0.871
4/26/2023 18:29:07.060,-2.445,-0.531,-0.668
4/26/2023 18:29:07.070,-2.02,-0.613,-0.551
4/26/2023 18:29:07.080,-1.566,-0.375,-0.539
4/26/2023 18:29:07.090,-1.289,-0.152,-0.453
4/26/2023 18:29:07.100,-0.82,-0.043,-0.602
4/26/2023 18:29:07.110,-0.645,-0.598,-0.371
4/26/2023 18:29:07.120,-0.512,-1.004,-0.109
4/26/2023 18:29:07.130,-0.301,-1.059,0.027
4/26/2023 18:29:07.140,-0.113,-1.063,0.117
4/26/2023 18:29:07.150,-0.051,-1.07,0.152
4/26/2023 18:29:07.160,-0.098,-0.906,0.145
4/26/2023 18:29:07.170,-0.172,-0.75,0.137
4/26/2023 18:29:07.180,-0.238,-0.637,0.129
4/26/2023 18:29:07.190,-0.316,-0.469,0.07
4/26/2023 18:29:07.200,-0.434,-0.309,0.004
4/26/2023 18:29:07.210,-0.516,-0.191,-0.035
4/26/2023 18:29:07.220,-0.594,-0.133,-0.059
4/26/2023 18:29:07.230,-0.648,-0.133,-0.063
4/26/2023 18:29:07.240,-0.727,-0.113,-0.051
4/26/2023 18:29:07.250,-0.84,-0.09,-0.039
4/26/2023 18:29:07.260,-0.949,-0.098,-0.027
4/26/2023 18:29:07.270,-1.094,-0.117,-0.02
4/26/2023 18:29:07.280,-1.238,-0.113,-0.043
4/26/2023 18:29:07.290,-1.402,-0.105,-0.008
4/26/2023 18:29:07.300,-1.602,-0.125,0.074
4/26/2023 18:29:07.310,-1.918,-0.184,0.09
4/26/2023 18:29:07.320,-2.352,-0.141,-0.023
4/26/2023 18:29:07.330,-2.738,0.164,-0.164
4/26/2023 18:29:07.340,-2.949,0.621,-0.383
4/26/2023 18:29:07.350,-3.059,0.809,-0.676
4/26/2023 18:29:07.360,-2.996,0.91,-0.965
4/26/2023 18:29:07.370,-2.457,1.379,-1.082
4/26/2023 18:29:07.380,-1.887,2.129,-1.172
4/26/2023 18:29:07.390,-1.441,2.938,-0.945
4/26/2023 18:29:07.400,-1.164,3.465,-0.66
4/26/2023 18:29:07.410,-1.523,3.281,-0.559
4/26/2023 18:29:07.420,-1.543,2.684,-0.582
4/26/2023 18:29:07.430,-1.223,2.316,-0.449
4/26/2023 18:29:07.440,-1.141,2.098,-0.391
4/26/2023 18:29:07.450,-1.648,1.5,-0.27
4/26/2023 18:29:07.460,-2.934,-1.805,-0.652
4/26/2023 18:29:07.470,-1.184,-3.949,0.715
4/26/2023 18:29:07.480,-0.738,-1.91,1.836
4/26/2023 18:29:07.490,-1.453,1.262,0.727
4/26/2023 18:29:07.500,-1.688,1.621,-0.125
4/26/2023 18:29:07.510,-1.41,1.109,0.035
4/26/2023 18:29:07.520,-1.117,1.113,-0.02
4/26/2023 18:29:07.530,-1.105,1.078,-0.52
4/26/2023 18:29:07.540,-1.355,0.625,-0.941
4/26/2023 18:29:07.550,-1.672,0.629,-1.16
4/26/2023 18:29:07.560,-1.398,0.801,-0.648
4/26/2023 18:29:07.570,-1.012,0.621,0.051
4/26/2023 18:29:07.580,-0.883,0.461,-0.16
4/26/2023 18:29:07.590,-0.965,0.418,-0.363
4/26/2023 18:29:07.600,-0.98,0.379,-0.258
4/26/2023 18:29:07.610,-1.031,0.41,-0.137
4/26/2023 18:29:07.620,-1.074,0.156,-0.168
4/26/2023 18:29:07.630,-1.105,-0.105,-0.172
4/26/2023 18:29:07.640,-1.066,0.063,-0.324
4/26/2023 18:29:07.650,-1.055,-0.016,-0.387
4/26/2023 18:29:07.660,-1.047,-0.035,-0.336
4/26/2023 18:29:07.670,-1.07,-0.059,-0.266
4/26/2023 18:29:07.680,-1.055,-0.047,-0.18
4/26/2023 18:29:07.690,-1.043,-0.016,-0.238
4/26/2023 18:29:07.700,-1.012,0.027,-0.328
4/26/2023 18:29:07.710,-1,0.012,-0.34
4/26/2023 18:29:07.720,-0.977,0.059,-0.262
4/26/2023 18:29:07.730,-1.016,0.012,-0.18
4/26/2023 18:29:07.740,-1.051,-0.055,-0.141
4/26/2023 18:29:07.750,-1.051,-0.16,-0.109
4/26/2023 18:29:07.760,-1.004,-0.086,-0.09
4/26/2023 18:29:07.770,-1.008,-0.051,-0.086
4/26/2023 18:29:07.780,-1,-0.043,-0.094
4/26/2023 18:29:07.790,-0.973,-0.016,-0.141
4/26/2023 18:29:07.800,-0.965,-0.039,-0.168
4/26/2023 18:29:07.810,-0.969,-0.113,-0.191
4/26/2023 18:29:07.820,-0.934,-0.188,-0.203
4/26/2023 18:29:07.830,-0.969,-0.176,-0.18
4/26/2023 18:29:07.840,-1.02,-0.184,-0.156
4/26/2023 18:29:07.850,-1.07,-0.156,-0.168
4/26/2023 18:29:07.860,-1.105,-0.125,-0.16
4/26/2023 18:29:07.870,-1.152,-0.082,-0.129
4/26/2023 18:29:07.880,-1.238,-0.125,-0.082
4/26/2023 18:29:07.890,-1.313,-0.156,-0.035
4/26/2023 18:29:07.900,-1.355,-0.195,0.02
4/26/2023 18:29:07.910,-1.375,-0.18,0.078
4/26/2023 18:29:07.920,-1.395,-0.191,0.137
4/26/2023 18:29:07.930,-1.461,-0.234,0.133
4/26/2023 18:29:07.940,-1.59,-0.336,0.023
4/26/2023 18:29:07.950,-1.719,-0.465,-0.105
4/26/2023 18:29:07.960,-1.793,-0.582,-0.145
4/26/2023 18:29:07.970,-1.949,-0.719,-0.098
4/26/2023 18:29:07.980,-2.168,-0.941,-0.098
4/26/2023 18:29:07.990,-2.211,-1.066,-0.164
4/26/2023 18:29:08.000,-2.219,-1.102,-0.188
4/26/2023 18:29:08.010,-2.426,-1.082,-0.152
4/26/2023 18:29:08.020,-2.617,-0.91,-0.152
4/26/2023 18:29:08.030,-2.547,-0.273,-0.496
4/26/2023 18:29:08.040,-2.465,0.574,-0.867
4/26/2023 18:29:08.050,-2.395,0.391,-0.711
4/26/2023 18:29:08.060,-2.332,-0.504,-0.621
4/26/2023 18:29:08.070,-1.98,-0.625,-0.652
4/26/2023 18:29:08.080,-1.531,-0.375,-0.547
4/26/2023 18:29:08.090,-1.32,-0.238,-0.508
4/26/2023 18:29:08.100,-0.871,0.059,-0.59
4/26/2023 18:29:08.110,-0.664,-0.418,-0.527
4/26/2023 18:29:08.120,-0.574,-0.891,-0.238
4/26/2023 18:29:08.130,-0.379,-0.953,-0.07
4/26/2023 18:29:08.140,-0.176,-0.938,0.066
4/26/2023 18:29:08.150,-0.066,-0.938,0.098
4/26/2023 18:29:08.160,-0.063,-0.848,0.086
4/26/2023 18:29:08.170,-0.086,-0.746,0.047
4/26/2023 18:29:08.180,-0.141,-0.602,0.008
4/26/2023 18:29:08.190,-0.242,-0.449,-0.047
4/26/2023 18:29:08.200,-0.363,-0.316,-0.125
4/26/2023 18:29:08.210,-0.453,-0.234,-0.191
4/26/2023 18:29:08.220,-0.508,-0.188,-0.203
4/26/2023 18:29:08.230,-0.59,-0.129,-0.188
4/26/2023 18:29:08.240,-0.617,-0.113,-0.156
4/26/2023 18:29:08.250,-0.688,-0.098,-0.152
4/26/2023 18:29:08.260,-0.801,-0.113,-0.152
4/26/2023 18:29:08.270,-0.926,-0.125,-0.141
4/26/2023 18:29:08.280,-1.063,-0.121,-0.145
4/26/2023 18:29:08.290,-1.199,-0.098,-0.148
4/26/2023 18:29:08.300,-1.395,-0.172,-0.125
4/26/2023 18:29:08.310,-1.648,-0.23,-0.07
4/26/2023 18:29:08.320,-1.973,-0.242,-0.09
4/26/2023 18:29:08.330,-2.305,-0.109,-0.188
4/26/2023 18:29:08.340,-2.68,0.211,-0.355
4/26/2023 18:29:08.350,-2.898,0.5,-0.559
4/26/2023 18:29:08.360,-3.055,0.754,-0.77
4/26/2023 18:29:08.370,-3.082,1.035,-0.969
4/26/2023 18:29:08.380,-2.547,1.473,-1.176
4/26/2023 18:29:08.390,-1.699,2.152,-0.977
4/26/2023 18:29:08.400,-1.465,2.977,-0.797
4/26/2023 18:29:08.410,-1.309,3.449,-0.609
4/26/2023 18:29:08.420,-1.523,3.121,-0.492
4/26/2023 18:29:08.430,-1.465,2.48,-0.477
4/26/2023 18:29:08.440,-1.316,2.063,-0.422
4/26/2023 18:29:08.450,-1.301,1.758,-0.363
4/26/2023 18:29:08.460,-2.637,0.402,-0.496
4/26/2023 18:29:08.470,-1.98,-2.059,-0.324
4/26/2023 18:29:08.480,-0.758,-2.641,0.887
4/26/2023 18:29:08.490,-1.211,-0.617,1.535
4/26/2023 18:29:08.500,-1.867,1.484,0.676
4/26/2023 18:29:08.510,-1.496,1.324,0.176
4/26/2023 18:29:08.520,-1.277,0.824,0.055
4/26/2023 18:29:08.530,-1.004,0.672,0.172
4/26/2023 18:29:08.540,-0.875,0.875,-0.258
4/26/2023 18:29:08.550,-1.055,0.508,-0.727
4/26/2023 18:29:08.560,-1.422,0.336,-0.984
4/26/2023 18:29:08.570,-1.367,0.688,-1.035
4/26/2023 18:29:08.580,-1.281,0.746,-0.371
4/26/2023 18:29:08.590,-1.047,0.477,0.023
4/26/2023 18:29:08.600,-0.941,0.715,-0.32
4/26/2023 18:29:08.610,-1.016,0.566,-0.367
4/26/2023 18:29:08.620,-1.016,0.488,-0.172
4/26/2023 18:29:08.630,-1.031,0.184,-0.078
4/26/2023 18:29:08.640,-1.07,-0.137,-0.141
4/26/2023 18:29:08.650,-1.074,-0.004,-0.219
4/26/2023 18:29:08.660,-1.051,-0.012,-0.332
4/26/2023 18:29:08.670,-1.02,0.035,-0.395
4/26/2023 18:29:08.680,-1.055,-0.012,-0.309
4/26/2023 18:29:08.690,-1.063,0.039,-0.254
4/26/2023 18:29:08.700,-1.043,0.004,-0.238
4/26/2023 18:29:08.710,-1.02,0.004,-0.25
4/26/2023 18:29:08.720,-1.004,0.039,-0.293
4/26/2023 18:29:08.730,-1.012,0.043,-0.316
4/26/2023 18:29:08.740,-0.996,0.043,-0.363
4/26/2023 18:29:08.750,-1.008,-0.023,-0.328
4/26/2023 18:29:08.760,-1.02,-0.027,-0.242
4/26/2023 18:29:08.770,-1.02,-0.086,-0.148
4/26/2023 18:29:08.780,-1.012,-0.055,-0.09
4/26/2023 18:29:08.790,-0.996,-0.023,-0.059
4/26/2023 18:29:08.800,-0.965,-0.082,-0.066
4/26/2023 18:29:08.810,-0.977,-0.043,-0.109
4/26/2023 18:29:08.820,-0.992,-0.047,-0.145
4/26/2023 18:29:08.830,-1.012,-0.125,-0.133
4/26/2023 18:29:08.840,-0.996,-0.105,-0.133
4/26/2023 18:29:08.850,-1.027,-0.086,-0.125
4/26/2023 18:29:08.860,-1.059,-0.152,-0.102
4/26/2023 18:29:08.870,-1.098,-0.102,-0.102
4/26/2023 18:29:08.880,-1.117,-0.066,-0.105
4/26/2023 18:29:08.890,-1.176,-0.102,-0.102
4/26/2023 18:29:08.900,-1.27,-0.168,-0.082
4/26/2023 18:29:08.910,-1.355,-0.234,-0.055
4/26/2023 18:29:08.920,-1.387,-0.238,0.004
4/26/2023 18:29:08.930,-1.402,-0.223,0.078
4/26/2023 18:29:08.940,-1.422,-0.234,0.156
4/26/2023 18:29:08.950,-1.469,-0.281,0.141
4/26/2023 18:29:08.960,-1.617,-0.398,0.012
4/26/2023 18:29:08.970,-1.695,-0.508,-0.152
4/26/2023 18:29:08.980,-1.754,-0.609,-0.219
4/26/2023 18:29:08.990,-1.805,-0.699,-0.195
4/26/2023 18:29:09.000,-2.02,-0.879,-0.133
4/26/2023 18:29:09.010,-2.172,-1.023,-0.152
4/26/2023 18:29:09.020,-2.262,-1.148,-0.164
4/26/2023 18:29:09.030,-2.355,-1.129,-0.113
4/26/2023 18:29:09.040,-2.633,-0.844,-0.164
4/26/2023 18:29:09.050,-2.621,0.004,-0.48
4/26/2023 18:29:09.060,-2.535,0.48,-0.844
4/26/2023 18:29:09.070,-2.531,-0.063,-0.711
4/26/2023 18:29:09.080,-2.285,-0.555,-0.648
4/26/2023 18:29:09.090,-1.801,-0.391,-0.566
4/26/2023 18:29:09.100,-1.496,-0.129,-0.75
4/26/2023 18:29:09.110,-1.27,-0.094,-0.609
4/26/2023 18:29:09.120,-0.719,0.031,-0.754
4/26/2023 18:29:09.130,-0.637,-0.469,-0.523
4/26/2023 18:29:09.140,-0.621,-0.953,-0.223
4/26/2023 18:29:09.150,-0.41,-0.996,-0.082
4/26/2023 18:29:09.160,-0.191,-0.953,0.008
4/26/2023 18:29:09.170,-0.098,-0.871,0.023
4/26/2023 18:29:09.180,-0.102,-0.734,-0.008
4/26/2023 18:29:09.190,-0.156,-0.574,-0.031
4/26/2023 18:29:09.200,-0.227,-0.449,-0.016
4/26/2023 18:29:09.210,-0.328,-0.316,-0.039
4/26/2023 18:29:09.220,-0.418,-0.25,-0.094
4/26/2023 18:29:09.230,-0.41,-0.234,-0.078
4/26/2023 18:29:09.240,-0.469,-0.148,-0.07
4/26/2023 18:29:09.250,-0.523,-0.156,-0.059
4/26/2023 18:29:09.260,-0.59,-0.137,-0.066
4/26/2023 18:29:09.270,-0.691,-0.082,-0.074
4/26/2023 18:29:09.280,-0.805,-0.008,-0.078
4/26/2023 18:29:09.290,-0.895,0.027,-0.09
4/26/2023 18:29:09.300,-0.992,0,-0.086
4/26/2023 18:29:09.310,-1.117,-0.066,-0.078
4/26/2023 18:29:09.320,-1.281,-0.086,-0.066
4/26/2023 18:29:09.330,-1.508,-0.133,-0.023
4/26/2023 18:29:09.340,-1.793,-0.223,0.012
4/26/2023 18:29:09.350,-2.172,-0.27,-0.074
4/26/2023 18:29:09.360,-2.617,-0.043,-0.23
4/26/2023 18:29:09.370,-2.91,0.426,-0.426
4/26/2023 18:29:09.380,-3.063,0.75,-0.68
4/26/2023 18:29:09.390,-3.039,0.922,-0.922
4/26/2023 18:29:09.400,-2.563,1.305,-1.129
4/26/2023 18:29:09.410,-2.113,2.027,-1.195
4/26/2023 18:29:09.420,-1.594,2.969,-0.941
4/26/2023 18:29:09.430,-1.207,3.656,-0.746
4/26/2023 18:29:09.440,-1.594,3.43,-0.598
4/26/2023 18:29:09.450,-1.406,2.801,-0.555
4/26/2023 18:29:09.460,-1.184,2.316,-0.484
4/26/2023 18:29:09.470,-1.746,1.762,-0.328
4/26/2023 18:29:09.480,-2.688,-1.023,-0.434
4/26/2023 18:29:09.490,-1.059,-3.016,0.445
4/26/2023 18:29:09.500,-0.789,-2.133,1.578
4/26/2023 18:29:09.510,-1.512,1.191,0.609
4/26/2023 18:29:09.520,-1.879,1.652,-0.102
4/26/2023 18:29:09.530,-1.523,1.059,0.164
4/26/2023 18:29:09.540,-1.102,0.938,0.207
4/26/2023 18:29:09.550,-0.91,1.227,-0.34
4/26/2023 18:29:09.560,-1.109,0.547,-0.762
4/26/2023 18:29:09.570,-1.359,0.336,-1.051
4/26/2023 18:29:09.580,-1.488,0.836,-1.035
4/26/2023 18:29:09.590,-1.32,0.953,-0.289
4/26/2023 18:29:09.600,-1.059,0.738,0.012
4/26/2023 18:29:09.610,-0.926,0.586,-0.137
4/26/2023 18:29:09.620,-0.98,0.32,-0.121
4/26/2023 18:29:09.630,-1.012,0.234,-0.145
4/26/2023 18:29:09.640,-1.047,0.016,-0.121
4/26/2023 18:29:09.650,-1.105,0.176,-0.207
4/26/2023 18:29:09.660,-1.055,0.277,-0.379
4/26/2023 18:29:09.670,-1.035,0.105,-0.336
4/26/2023 18:29:09.680,-1.086,0.043,-0.316
4/26/2023 18:29:09.690,-1.07,0.043,-0.27
4/26/2023 18:29:09.700,-1.086,-0.031,-0.223
4/26/2023 18:29:09.710,-1.059,-0.004,-0.293
4/26/2023 18:29:09.720,-0.996,0.016,-0.379
4/26/2023 18:29:09.730,-0.969,0.082,-0.367
4/26/2023 18:29:09.740,-0.996,0.043,-0.293
4/26/2023 18:29:09.750,-1.039,0.008,-0.234
4/26/2023 18:29:09.760,-1.059,-0.133,-0.188
4/26/2023 18:29:09.770,-1.043,-0.141,-0.172
4/26/2023 18:29:09.780,-1.035,-0.164,-0.121
4/26/2023 18:29:09.790,-1.023,-0.086,-0.07
4/26/2023 18:29:09.800,-0.973,-0.055,-0.074
4/26/2023 18:29:09.810,-0.941,-0.125,-0.113
4/26/2023 18:29:09.820,-0.93,-0.164,-0.172
4/26/2023 18:29:09.830,-0.938,-0.117,-0.207
4/26/2023 18:29:09.840,-0.941,-0.109,-0.164
4/26/2023 18:29:09.850,-0.973,-0.133,-0.105
4/26/2023 18:29:09.860,-1.027,-0.105,-0.082
4/26/2023 18:29:09.870,-1.066,-0.078,-0.09
4/26/2023 18:29:09.880,-1.098,-0.047,-0.078
4/26/2023 18:29:09.890,-1.148,-0.051,-0.078
4/26/2023 18:29:09.900,-1.215,-0.105,-0.098
4/26/2023 18:29:09.910,-1.289,-0.156,-0.086
4/26/2023 18:29:09.920,-1.336,-0.172,-0.074
4/26/2023 18:29:09.930,-1.355,-0.156,-0.031
4/26/2023 18:29:09.940,-1.387,-0.188,0.055
4/26/2023 18:29:09.950,-1.418,-0.203,0.105
4/26/2023 18:29:09.960,-1.527,-0.32,0.027
4/26/2023 18:29:09.970,-1.66,-0.43,-0.109
4/26/2023 18:29:09.980,-1.746,-0.543,-0.172
4/26/2023 18:29:09.990,-1.914,-0.676,-0.141
4/26/2023 18:29:10.000,-2.031,-0.879,-0.191
4/26/2023 18:29:10.010,-1.973,-1.004,-0.246
4/26/2023 18:29:10.020,-2.113,-1.098,-0.195
4/26/2023 18:29:10.030,-2.324,-1.105,-0.125
4/26/2023 18:29:10.040,-2.566,-0.941,-0.059
4/26/2023 18:29:10.050,-2.766,-0.266,-0.152
4/26/2023 18:29:10.060,-2.73,0.52,-0.715
4/26/2023 18:29:10.070,-2.621,0.031,-0.957
4/26/2023 18:29:10.080,-2.496,-1.043,-0.508
4/26/2023 18:29:10.090,-1.902,-0.277,-0.457
4/26/2023 18:29:10.100,-1.617,-0.055,-0.609
4/26/2023 18:29:10.110,-1.473,-0.516,-0.691
4/26/2023 18:29:10.120,-0.93,-0.16,-0.613
4/26/2023 18:29:10.130,-0.652,-0.25,-0.605
4/26/2023 18:29:10.140,-0.633,-0.82,-0.254
4/26/2023 18:29:10.150,-0.547,-0.992,-0.098
4/26/2023 18:29:10.160,-0.313,-0.961,-0.051
4/26/2023 18:29:10.170,-0.125,-0.887,-0.051
4/26/2023 18:29:10.180,-0.086,-0.789,-0.07
4/26/2023 18:29:10.190,-0.148,-0.719,-0.082
4/26/2023 18:29:10.200,-0.23,-0.625,-0.07
4/26/2023 18:29:10.210,-0.375,-0.434,-0.066
4/26/2023 18:29:10.220,-0.461,-0.254,-0.137
4/26/2023 18:29:10.230,-0.527,-0.164,-0.145
4/26/2023 18:29:10.240,-0.531,-0.188,-0.086
4/26/2023 18:29:10.250,-0.496,-0.262,-0.031
4/26/2023 18:29:10.260,-0.586,-0.152,-0.004
4/26/2023 18:29:10.270,-0.699,-0.094,-0.004
4/26/2023 18:29:10.280,-0.816,-0.145,-0.016
4/26/2023 18:29:10.290,-0.949,-0.18,-0.035
4/26/2023 18:29:10.300,-1.051,-0.105,-0.016
4/26/2023 18:29:10.310,-1.176,-0.031,-0.027
4/26/2023 18:29:10.320,-1.336,-0.023,-0.02
4/26/2023 18:29:10.330,-1.586,-0.113,0.008
4/26/2023 18:29:10.340,-1.918,-0.227,0.004
4/26/2023 18:29:10.350,-2.313,-0.215,-0.082
4/26/2023 18:29:10.360,-2.695,0.082,-0.258
4/26/2023 18:29:10.370,-2.863,0.551,-0.445
4/26/2023 18:29:10.380,-2.941,0.848,-0.645
4/26/2023 18:29:10.390,-3.012,0.961,-0.879
4/26/2023 18:29:10.400,-2.617,1.438,-0.914
4/26/2023 18:29:10.410,-1.965,2.152,-0.832
4/26/2023 18:29:10.420,-1.555,3.039,-0.664
4/26/2023 18:29:10.430,-1.387,3.668,-0.578
4/26/2023 18:29:10.440,-1.504,3.383,-0.461
4/26/2023 18:29:10.450,-1.387,2.777,-0.43
4/26/2023 18:29:10.460,-1.219,2.336,-0.242
4/26/2023 18:29:10.470,-2.641,1.324,-0.555
4/26/2023 18:29:10.480,-1.82,-0.988,-0.879
4/26/2023 18:29:10.490,-0.914,-3.016,0.105
4/26/2023 18:29:10.500,-1.148,-1.078,1.156
4/26/2023 18:29:10.510,-2.125,1.613,1.055
4/26/2023 18:29:10.520,-1.813,1.695,0.742
4/26/2023 18:29:10.530,-1.383,1.117,0.359
4/26/2023 18:29:10.540,-1.105,0.617,0.066
4/26/2023 18:29:10.550,-0.781,0.52,-0.227
4/26/2023 18:29:10.560,-0.824,0.512,-0.492
4/26/2023 18:29:10.570,-1.055,0.477,-0.566
4/26/2023 18:29:10.580,-0.992,0.582,-0.719
4/26/2023 18:29:10.590,-1.352,0.84,-0.875
4/26/2023 18:29:10.600,-1.441,0.852,-0.539
4/26/2023 18:29:10.610,-1.016,0.625,-0.164
4/26/2023 18:29:10.620,-0.984,0.57,-0.176
4/26/2023 18:29:10.630,-1.027,0.426,-0.258
4/26/2023 18:29:10.640,-1.039,0.141,-0.102
4/26/2023 18:29:10.650,-1.063,0.117,-0.156
4/26/2023 18:29:10.660,-1.063,0.125,-0.297
4/26/2023 18:29:10.670,-1.055,0.043,-0.332
4/26/2023 18:29:10.680,-1.082,0,-0.277
4/26/2023 18:29:10.690,-1.082,0.059,-0.289
4/26/2023 18:29:10.700,-1.082,0.047,-0.242
4/26/2023 18:29:10.710,-1.07,0.055,-0.195
4/26/2023 18:29:10.720,-1.055,0.051,-0.211
4/26/2023 18:29:10.730,-1.066,0.035,-0.332
4/26/2023 18:29:10.740,-1.039,0.02,-0.395
4/26/2023 18:29:10.750,-0.965,0.094,-0.383
4/26/2023 18:29:10.760,-0.914,0.07,-0.277
4/26/2023 18:29:10.770,-0.945,0.008,-0.223
4/26/2023 18:29:10.780,-1.055,-0.063,-0.207
4/26/2023 18:29:10.790,-1.055,-0.07,-0.199
4/26/2023 18:29:10.800,-1.008,-0.02,-0.195
4/26/2023 18:29:10.810,-0.977,0.043,-0.23
4/26/2023 18:29:10.820,-0.914,0.035,-0.242
4/26/2023 18:29:10.830,-0.918,0.051,-0.234
4/26/2023 18:29:10.840,-0.914,0.035,-0.199
4/26/2023 18:29:10.850,-0.902,0.012,-0.145
4/26/2023 18:29:10.860,-0.914,-0.035,-0.117
4/26/2023 18:29:10.870,-0.969,-0.059,-0.145
4/26/2023 18:29:10.880,-1.012,-0.121,-0.18
4/26/2023 18:29:10.890,-1.051,-0.137,-0.168
4/26/2023 18:29:10.900,-1.086,-0.117,-0.141
4/26/2023 18:29:10.910,-1.152,-0.129,-0.117
4/26/2023 18:29:10.920,-1.242,-0.141,-0.09
4/26/2023 18:29:10.930,-1.305,-0.141,-0.074
4/26/2023 18:29:10.940,-1.332,-0.152,-0.027
4/26/2023 18:29:10.950,-1.336,-0.148,0.063
4/26/2023 18:29:10.960,-1.367,-0.176,0.121
4/26/2023 18:29:10.970,-1.48,-0.242,0.09
4/26/2023 18:29:10.980,-1.613,-0.336,0.031
4/26/2023 18:29:10.990,-1.723,-0.422,-0.02
4/26/2023 18:29:11.000,-1.816,-0.496,0.031
4/26/2023 18:29:11.010,-1.984,-0.66,0.063
4/26/2023 18:29:11.020,-2.215,-0.848,0.012
4/26/2023 18:29:11.030,-2.066,-1,-0.078
4/26/2023 18:29:11.040,-2.223,-1.215,-0.121
4/26/2023 18:29:11.050,-2.477,-1.289,-0.145
4/26/2023 18:29:11.060,-2.563,-1.074,-0.145
4/26/2023 18:29:11.070,-2.641,-0.051,-0.43
4/26/2023 18:29:11.080,-2.648,0.855,-0.922
4/26/2023 18:29:11.090,-2.598,0.477,-0.719
4/26/2023 18:29:11.100,-2.41,-0.691,-0.711
4/26/2023 18:29:11.110,-1.977,-0.816,-0.742
4/26/2023 18:29:11.120,-1.523,-0.52,-0.652
4/26/2023 18:29:11.130,-1.262,-0.547,-0.566
4/26/2023 18:29:11.140,-0.758,-0.035,-0.68
4/26/2023 18:29:11.150,-0.52,-0.266,-0.684
4/26/2023 18:29:11.160,-0.426,-0.773,-0.43
4/26/2023 18:29:11.170,-0.313,-0.922,-0.277
4/26/2023 18:29:11.180,-0.133,-0.949,-0.105
4/26/2023 18:29:11.190,-0.008,-0.941,-0.016
4/26/2023 18:29:11.200,-0.008,-0.867,0
4/26/2023 18:29:11.210,-0.09,-0.727,0
4/26/2023 18:29:11.220,-0.188,-0.574,-0.02
4/26/2023 18:29:11.230,-0.281,-0.434,-0.055
4/26/2023 18:29:11.240,-0.363,-0.352,-0.098
4/26/2023 18:29:11.250,-0.406,-0.313,-0.129
4/26/2023 18:29:11.260,-0.5,-0.223,-0.145
4/26/2023 18:29:11.270,-0.539,-0.18,-0.117
4/26/2023 18:29:11.280,-0.586,-0.125,-0.098
4/26/2023 18:29:11.290,-0.664,-0.082,-0.117
4/26/2023 18:29:11.300,-0.824,-0.156,-0.133
4/26/2023 18:29:11.310,-0.984,-0.125,-0.141
4/26/2023 18:29:11.320,-1.117,-0.066,-0.152
4/26/2023 18:29:11.330,-1.234,-0.043,-0.152
4/26/2023 18:29:11.340,-1.43,-0.117,-0.133
4/26/2023 18:29:11.350,-1.699,-0.195,-0.094
4/26/2023 18:29:11.360,-2.051,-0.23,-0.125
4/26/2023 18:29:11.370,-2.441,-0.027,-0.254
4/26/2023 18:29:11.380,-2.793,0.34,-0.359
4/26/2023 18:29:11.390,-2.98,0.699,-0.551
4/26/2023 18:29:11.400,-2.996,0.902,-0.699
4/26/2023 18:29:11.410,-2.824,1.117,-0.828
4/26/2023 18:29:11.420,-2.234,1.684,-0.77
4/26/2023 18:29:11.430,-1.738,2.387,-0.871
4/26/2023 18:29:11.440,-1.477,3.152,-0.867
4/26/2023 18:29:11.450,-1.469,3.355,-0.688
4/26/2023 18:29:11.460,-1.484,2.914,-0.48
4/26/2023 18:29:11.470,-1.426,2.484,-0.355
4/26/2023 18:29:11.480,-1.469,2.07,-0.188
4/26/2023 18:29:11.490,-2.758,0.426,-0.496
4/26/2023 18:29:11.500,-1.57,-1.43,-0.148
4/26/2023 18:29:11.510,-0.77,-2.125,0.59
4/26/2023 18:29:11.520,-1.047,-0.527,1.238
4/26/2023 18:29:11.530,-1.848,1.262,0.672
4/26/2023 18:29:11.540,-1.57,1.133,0.426
4/26/2023 18:29:11.550,-1.176,0.723,0.27
4/26/2023 18:29:11.560,-0.969,0.824,-0.145
4/26/2023 18:29:11.570,-1.035,0.852,-0.41
4/26/2023 18:29:11.580,-1.168,0.391,-0.563
4/26/2023 18:29:11.590,-1.445,0.375,-0.77
4/26/2023 18:29:11.600,-1.453,0.816,-0.758
4/26/2023 18:29:11.610,-1.113,0.605,-0.473
4/26/2023 18:29:11.620,-0.992,0.375,-0.219
4/26/2023 18:29:11.630,-0.961,0.66,-0.297
4/26/2023 18:29:11.640,-1.016,0.66,-0.402
4/26/2023 18:29:11.650,-1.023,0.422,-0.344
4/26/2023 18:29:11.660,-1.012,0.211,-0.203
4/26/2023 18:29:11.670,-1.031,0,-0.152
4/26/2023 18:29:11.680,-1.047,-0.047,-0.191
4/26/2023 18:29:11.690,-1.059,-0.043,-0.215
4/26/2023 18:29:11.700,-1.07,-0.039,-0.293
4/26/2023 18:29:11.710,-1.035,-0.016,-0.313
4/26/2023 18:29:11.720,-1.047,-0.004,-0.258
4/26/2023 18:29:11.730,-1.039,0.047,-0.246
4/26/2023 18:29:11.740,-1.027,0.02,-0.25
4/26/2023 18:29:11.750,-1.008,0.059,-0.242
4/26/2023 18:29:11.760,-1.012,0,-0.234
4/26/2023 18:29:11.770,-1.012,-0.027,-0.273
4/26/2023 18:29:11.780,-1.012,-0.008,-0.328
4/26/2023 18:29:11.790,-0.992,-0.035,-0.285
4/26/2023 18:29:11.800,-0.988,-0.121,-0.211
4/26/2023 18:29:11.810,-1.012,-0.117,-0.121
4/26/2023 18:29:11.820,-0.984,-0.129,-0.117
4/26/2023 18:29:11.830,-0.965,-0.078,-0.141
4/26/2023 18:29:11.840,-0.973,-0.094,-0.168
4/26/2023 18:29:11.850,-0.977,-0.074,-0.195
4/26/2023 18:29:11.860,-0.984,-0.066,-0.176
4/26/2023 18:29:11.870,-0.988,-0.086,-0.133
4/26/2023 18:29:11.880,-0.98,-0.082,-0.125
4/26/2023 18:29:11.890,-1.012,-0.105,-0.133
4/26/2023 18:29:11.900,-1.066,-0.176,-0.137
4/26/2023 18:29:11.910,-1.102,-0.176,-0.152
4/26/2023 18:29:11.920,-1.148,-0.18,-0.156
4/26/2023 18:29:11.930,-1.199,-0.137,-0.113
4/26/2023 18:29:11.940,-1.316,-0.199,-0.086
4/26/2023 18:29:11.950,-1.352,-0.191,-0.059
4/26/2023 18:29:11.960,-1.375,-0.176,0
4/26/2023 18:29:11.970,-1.355,-0.18,0.109
4/26/2023 18:29:11.980,-1.395,-0.199,0.129
4/26/2023 18:29:11.990,-1.527,-0.234,0.051
4/26/2023 18:29:12.000,-1.621,-0.324,-0.059
4/26/2023 18:29:12.010,-1.699,-0.398,-0.109
4/26/2023 18:29:12.020,-1.777,-0.484,-0.059
4/26/2023 18:29:12.030,-1.945,-0.598,-0.063
4/26/2023 18:29:12.040,-2.02,-0.785,-0.145
4/26/2023 18:29:12.050,-2.016,-0.988,-0.141
4/26/2023 18:29:12.060,-2.176,-1.027,-0.148
4/26/2023 18:29:12.070,-2.395,-1.148,-0.133
4/26/2023 18:29:12.080,-2.48,-1.066,-0.105
4/26/2023 18:29:12.090,-2.59,-0.32,-0.387
4/26/2023 18:29:12.100,-2.613,0.664,-0.871
4/26/2023 18:29:12.110,-2.492,0.555,-0.762
4/26/2023 18:29:12.120,-2.375,-0.648,-0.609
4/26/2023 18:29:12.130,-2.059,-1.012,-0.68
4/26/2023 18:29:12.140,-1.508,-0.441,-0.566
4/26/2023 18:29:12.150,-1.199,-0.211,-0.563
4/26/2023 18:29:12.160,-0.922,0.223,-0.684
4/26/2023 18:29:12.170,-0.688,-0.121,-0.672
4/26/2023 18:29:12.180,-0.543,-0.785,-0.305
4/26/2023 18:29:12.190,-0.375,-1.02,-0.137
4/26/2023 18:29:12.200,-0.203,-1.004,0.012
4/26/2023 18:29:12.210,-0.152,-0.961,0.059
4/26/2023 18:29:12.220,-0.195,-0.879,0.055
4/26/2023 18:29:12.230,-0.238,-0.73,0.035
4/26/2023 18:29:12.240,-0.27,-0.574,0.012
4/26/2023 18:29:12.250,-0.316,-0.434,-0.023
4/26/2023 18:29:12.260,-0.391,-0.332,-0.063
4/26/2023 18:29:12.270,-0.469,-0.238,-0.125
4/26/2023 18:29:12.280,-0.523,-0.105,-0.133
4/26/2023 18:29:12.290,-0.523,-0.023,-0.086
4/26/2023 18:29:12.300,-0.555,-0.066,-0.063
4/26/2023 18:29:12.310,-0.613,-0.09,-0.047
4/26/2023 18:29:12.320,-0.707,-0.066,-0.074
4/26/2023 18:29:12.330,-0.832,-0.063,-0.086
4/26/2023 18:29:12.340,-0.977,-0.117,-0.109
4/26/2023 18:29:12.350,-1.105,-0.117,-0.117
4/26/2023 18:29:12.360,-1.262,-0.078,-0.121
4/26/2023 18:29:12.370,-1.461,-0.07,-0.059
4/26/2023 18:29:12.380,-1.738,-0.141,-0.031
4/26/2023 18:29:12.390,-2.129,-0.168,-0.102
4/26/2023 18:29:12.400,-2.578,0.043,-0.242
4/26/2023 18:29:12.410,-2.898,0.5,-0.461
4/26/2023 18:29:12.420,-3.02,0.965,-0.707
4/26/2023 18:29:12.430,-3.016,1.109,-0.875
4/26/2023 18:29:12.440,-2.637,1.273,-0.973
4/26/2023 18:29:12.450,-2.074,1.91,-1.031
4/26/2023 18:29:12.460,-1.688,2.73,-1.027
4/26/2023 18:29:12.470,-1.285,3.48,-0.813
4/26/2023 18:29:12.480,-1.559,3.57,-0.531
4/26/2023 18:29:12.490,-1.477,2.992,-0.391
4/26/2023 18:29:12.500,-1.488,2.367,-0.254
4/26/2023 18:29:12.510,-2.66,0.684,-0.512
4/26/2023 18:29:12.520,-1.805,-2.078,-0.645
4/26/2023 18:29:12.530,-0.488,-2.773,0.16
4/26/2023 18:29:12.540,-1.105,-0.281,0.609
4/26/2023 18:29:12.550,-2.426,1.277,0.789
4/26/2023 18:29:12.560,-1.906,0.945,1.715
4/26/2023 18:29:12.570,-1.125,1.316,0.805
4/26/2023 18:29:12.580,-0.887,0.961,-0.27
4/26/2023 18:29:12.590,-0.832,0.652,-0.609
4/26/2023 18:29:12.600,-0.832,0.566,-0.727
4/26/2023 18:29:12.610,-1.109,0.457,-0.887
4/26/2023 18:29:12.620,-1.5,0.52,-1.055
4/26/2023 18:29:12.630,-1.484,0.527,-0.508
4/26/2023 18:29:12.640,-1.273,0.652,-0.18
4/26/2023 18:29:12.650,-0.992,0.609,-0.262
4/26/2023 18:29:12.660,-0.992,0.355,-0.332
4/26/2023 18:29:12.670,-0.926,0.289,-0.203
4/26/2023 18:29:12.680,-1,0.316,-0.188
4/26/2023 18:29:12.690,-1.008,0.094,-0.168
4/26/2023 18:29:12.700,-0.992,-0.059,-0.125
4/26/2023 18:29:12.710,-0.969,-0.078,-0.164
4/26/2023 18:29:12.720,-1.082,0.008,-0.266
4/26/2023 18:29:12.730,-1.055,0.07,-0.23
4/26/2023 18:29:12.740,-1.051,0.047,-0.211
4/26/2023 18:29:12.750,-1.023,-0.004,-0.16
4/26/2023 18:29:12.760,-1.043,-0.008,-0.156
4/26/2023 18:29:12.770,-1.039,-0.02,-0.203
4/26/2023 18:29:12.780,-1.016,0,-0.234
4/26/2023 18:29:12.790,-0.996,0,-0.297
4/26/2023 18:29:12.800,-0.965,0.004,-0.34
4/26/2023 18:29:12.810,-0.938,-0.016,-0.309
4/26/2023 18:29:12.820,-0.977,-0.039,-0.281
4/26/2023 18:29:12.830,-0.98,-0.035,-0.195
4/26/2023 18:29:12.840,-0.969,-0.07,-0.098
4/26/2023 18:29:12.850,-0.973,-0.043,-0.047
4/26/2023 18:29:12.860,-0.996,-0.063,-0.047
4/26/2023 18:29:12.870,-1.004,-0.074,-0.117
4/26/2023 18:29:12.880,-0.988,-0.074,-0.18
4/26/2023 18:29:12.890,-0.992,-0.141,-0.195
4/26/2023 18:29:12.900,-0.996,-0.133,-0.195
4/26/2023 18:29:12.910,-1.004,-0.141,-0.195
4/26/2023 18:29:12.920,-1.023,-0.141,-0.227
4/26/2023 18:29:12.930,-1.031,-0.133,-0.211
4/26/2023 18:29:12.940,-1.074,-0.094,-0.199
4/26/2023 18:29:12.950,-1.145,-0.117,-0.164
4/26/2023 18:29:12.960,-1.25,-0.184,-0.16
4/26/2023 18:29:12.970,-1.34,-0.184,-0.113
4/26/2023 18:29:12.980,-1.391,-0.199,-0.027
4/26/2023 18:29:12.990,-1.395,-0.164,0.055
4/26/2023 18:29:13.000,-1.469,-0.191,0.09
4/26/2023 18:29:13.010,-1.512,-0.254,0.055
4/26/2023 18:29:13.020,-1.598,-0.273,-0.004
4/26/2023 18:29:13.030,-1.695,-0.332,0.004
4/26/2023 18:29:13.040,-1.824,-0.445,0.051
4/26/2023 18:29:13.050,-2,-0.574,0.039
4/26/2023 18:29:13.060,-2.055,-0.82,-0.086
4/26/2023 18:29:13.070,-2.059,-1.07,-0.207
4/26/2023 18:29:13.080,-2.223,-1.176,-0.246
4/26/2023 18:29:13.090,-2.246,-1.059,-0.238
4/26/2023 18:29:13.100,-2.602,-1.043,-0.195
4/26/2023 18:29:13.110,-2.613,-0.676,-0.238
4/26/2023 18:29:13.120,-2.473,0.051,-0.496
4/26/2023 18:29:13.130,-2.453,0.523,-0.742
4/26/2023 18:29:13.140,-2.418,-0.23,-0.527
4/26/2023 18:29:13.150,-2.035,-0.887,-0.598
4/26/2023 18:29:13.160,-1.563,-0.582,-0.609
4/26/2023 18:29:13.170,-1.176,-0.258,-0.59
4/26/2023 18:29:13.180,-0.996,-0.172,-0.547
4/26/2023 18:29:13.190,-0.566,0,-0.68
4/26/2023 18:29:13.200,-0.48,-0.594,-0.457
4/26/2023 18:29:13.210,-0.469,-0.977,-0.215
4/26/2023 18:29:13.220,-0.324,-1.023,-0.059
4/26/2023 18:29:13.230,-0.176,-1.004,0.063
4/26/2023 18:29:13.240,-0.109,-0.961,0.094
4/26/2023 18:29:13.250,-0.109,-0.824,0.086
4/26/2023 18:29:13.260,-0.172,-0.664,0.059
4/26/2023 18:29:13.270,-0.25,-0.531,0.027
4/26/2023 18:29:13.280,-0.414,-0.32,-0.07
4/26/2023 18:29:13.290,-0.414,-0.246,-0.129
4/26/2023 18:29:13.300,-0.426,-0.27,-0.141
4/26/2023 18:29:13.310,-0.496,-0.207,-0.129
4/26/2023 18:29:13.320,-0.555,-0.129,-0.094
4/26/2023 18:29:13.330,-0.652,-0.105,-0.102
4/26/2023 18:29:13.340,-0.785,-0.09,-0.121
4/26/2023 18:29:13.350,-0.906,-0.094,-0.133
4/26/2023 18:29:13.360,-1.031,-0.164,-0.152
4/26/2023 18:29:13.370,-1.191,-0.148,-0.164
4/26/2023 18:29:13.380,-1.406,-0.066,-0.148
4/26/2023 18:29:13.390,-1.648,-0.176,-0.094
4/26/2023 18:29:13.400,-1.953,-0.266,-0.063
4/26/2023 18:29:13.410,-2.285,-0.207,-0.145
4/26/2023 18:29:13.420,-2.684,0.094,-0.297
4/26/2023 18:29:13.430,-2.91,0.527,-0.438
4/26/2023 18:29:13.440,-3.078,0.848,-0.68
4/26/2023 18:29:13.450,-3.07,1.031,-0.949
4/26/2023 18:29:13.460,-2.551,1.422,-1.121
4/26/2023 18:29:13.470,-2.031,2.203,-0.938
4/26/2023 18:29:13.480,-1.578,3.195,-0.691
4/26/2023 18:29:13.490,-1.414,3.652,-0.551
4/26/2023 18:29:13.500,-1.648,3.145,-0.461
4/26/2023 18:29:13.510,-1.395,2.57,-0.453
4/26/2023 18:29:13.520,-1.262,2.242,-0.297
4/26/2023 18:29:13.530,-1.246,1.91,-0.152
4/26/2023 18:29:13.540,-2.668,0.426,-0.395
4/26/2023 18:29:13.550,-1.938,-3.203,-0.336
4/26/2023 18:29:13.560,-0.617,-3.121,0.891
4/26/2023 18:29:13.570,-0.996,-0.012,1.215
4/26/2023 18:29:13.580,-1.859,1.613,0.465
4/26/2023 18:29:13.590,-1.512,1.27,0.234
4/26/2023 18:29:13.600,-1.242,0.762,0.156
4/26/2023 18:29:13.610,-0.973,0.496,0.125
4/26/2023 18:29:13.620,-0.926,0.84,-0.434
4/26/2023 18:29:13.630,-1.25,0.75,-0.848
4/26/2023 18:29:13.640,-1.352,0.457,-0.848
4/26/2023 18:29:13.650,-1.375,0.527,-0.723
4/26/2023 18:29:13.660,-1.395,0.711,-0.508
4/26/2023 18:29:13.670,-1.043,0.707,-0.203
4/26/2023 18:29:13.680,-0.898,0.316,-0.137
4/26/2023 18:29:13.690,-0.965,0.367,-0.227
4/26/2023 18:29:13.700,-1.047,0.445,-0.27
4/26/2023 18:29:13.710,-1.043,0.258,-0.176
4/26/2023 18:29:13.720,-1.059,0.109,-0.148
4/26/2023 18:29:13.730,-1.078,0.141,-0.254
4/26/2023 18:29:13.740,-1.074,-0.004,-0.273
4/26/2023 18:29:13.750,-1.043,0.02,-0.262
4/26/2023 18:29:13.760,-1.07,0.031,-0.242
4/26/2023 18:29:13.770,-1.023,-0.031,-0.16
4/26/2023 18:29:13.780,-1.063,-0.07,-0.191
4/26/2023 18:29:13.790,-0.988,-0.004,-0.227
4/26/2023 18:29:13.800,-0.992,0,-0.305
4/26/2023 18:29:13.810,-0.977,0.098,-0.328
4/26/2023 18:29:13.820,-0.992,0.012,-0.293
4/26/2023 18:29:13.830,-1,-0.043,-0.23
4/26/2023 18:29:13.840,-0.988,-0.055,-0.164
4/26/2023 18:29:13.850,-0.977,-0.07,-0.125
4/26/2023 18:29:13.860,-0.957,-0.059,-0.105
4/26/2023 18:29:13.870,-0.961,-0.027,-0.117
4/26/2023 18:29:13.880,-0.973,-0.063,-0.152
4/26/2023 18:29:13.890,-0.957,-0.09,-0.191
4/26/2023 18:29:13.900,-0.961,-0.09,-0.164
4/26/2023 18:29:13.910,-0.977,-0.129,-0.121
4/26/2023 18:29:13.920,-1.012,-0.223,-0.129
4/26/2023 18:29:13.930,-1.016,-0.199,-0.152
4/26/2023 18:29:13.940,-1.047,-0.227,-0.18
4/26/2023 18:29:13.950,-1.102,-0.18,-0.188
4/26/2023 18:29:13.960,-1.18,-0.16,-0.203
4/26/2023 18:29:13.970,-1.27,-0.113,-0.148
4/26/2023 18:29:13.980,-1.332,-0.133,-0.043
4/26/2023 18:29:13.990,-1.316,-0.121,0.074
4/26/2023 18:29:14.000,-1.344,-0.152,0.172
4/26/2023 18:29:14.010,-1.406,-0.172,0.188
4/26/2023 18:29:14.020,-1.492,-0.215,0.066
4/26/2023 18:29:14.030,-1.609,-0.277,-0.078
4/26/2023 18:29:14.040,-1.711,-0.363,-0.168
4/26/2023 18:29:14.050,-1.801,-0.492,-0.168
4/26/2023 18:29:14.060,-1.871,-0.633,-0.082
4/26/2023 18:29:14.070,-2.074,-0.828,-0.074
4/26/2023 18:29:14.080,-2.121,-1.016,-0.148
4/26/2023 18:29:14.090,-2.137,-1.168,-0.207
4/26/2023 18:29:14.100,-2.289,-1.102,-0.172
4/26/2023 18:29:14.110,-2.621,-1.031,-0.078
4/26/2023 18:29:14.120,-2.629,-0.648,-0.203
4/26/2023 18:29:14.130,-2.453,0.211,-0.605
4/26/2023 18:29:14.140,-2.488,0.488,-0.895
4/26/2023 18:29:14.150,-2.465,-0.383,-0.664
4/26/2023 18:29:14.160,-2.035,-0.785,-0.734
4/26/2023 18:29:14.170,-1.516,-0.387,-0.66
4/26/2023 18:29:14.180,-1.219,-0.305,-0.617
4/26/2023 18:29:14.190,-0.914,-0.195,-0.582
4/26/2023 18:29:14.200,-0.539,-0.082,-0.66
4/26/2023 18:29:14.210,-0.59,-0.641,-0.426
4/26/2023 18:29:14.220,-0.496,-0.926,-0.211
4/26/2023 18:29:14.230,-0.258,-0.961,-0.082
4/26/2023 18:29:14.240,-0.098,-0.953,-0.02
4/26/2023 18:29:14.250,-0.063,-0.906,-0.012
4/26/2023 18:29:14.260,-0.102,-0.801,-0.012
4/26/2023 18:29:14.270,-0.156,-0.648,-0.012
4/26/2023 18:29:14.280,-0.246,-0.496,-0.008
4/26/2023 18:29:14.290,-0.406,-0.285,-0.07
4/26/2023 18:29:14.300,-0.426,-0.262,-0.094
4/26/2023 18:29:14.310,-0.453,-0.23,-0.109
4/26/2023 18:29:14.320,-0.508,-0.121,-0.09
4/26/2023 18:29:14.330,-0.551,-0.082,-0.074
4/26/2023 18:29:14.340,-0.66,-0.133,-0.078
4/26/2023 18:29:14.350,-0.785,-0.098,-0.078
4/26/2023 18:29:14.360,-0.898,-0.059,-0.07
4/26/2023 18:29:14.370,-1.051,-0.082,-0.07
4/26/2023 18:29:14.380,-1.215,-0.09,-0.078
4/26/2023 18:29:14.390,-1.406,-0.117,-0.066
4/26/2023 18:29:14.400,-1.652,-0.176,-0.004
4/26/2023 18:29:14.410,-1.969,-0.207,0.008
4/26/2023 18:29:14.420,-2.359,-0.066,-0.094
4/26/2023 18:29:14.430,-2.742,0.223,-0.176
4/26/2023 18:29:14.440,-3.02,0.523,-0.34
4/26/2023 18:29:14.450,-3.211,0.723,-0.582
4/26/2023 18:29:14.460,-3.133,0.813,-0.938
4/26/2023 18:29:14.470,-2.426,1.363,-0.863
4/26/2023 18:29:14.480,-1.855,2.25,-0.887
4/26/2023 18:29:14.490,-1.48,3.121,-0.742
4/26/2023 18:29:14.500,-1.219,3.383,-0.578
4/26/2023 18:29:14.510,-1.531,2.914,-0.574
4/26/2023 18:29:14.520,-1.48,2.227,-0.535
4/26/2023 18:29:14.530,-1.48,1.98,-0.262
4/26/2023 18:29:14.540,-2.613,0.469,0.02
4/26/2023 18:29:14.550,-2.031,-0.43,0.238
4/26/2023 18:29:14.560,-0.832,-1.609,0.945
4/26/2023 18:29:14.570,-0.914,-0.441,0.824
4/26/2023 18:29:14.580,-1.82,1.219,-0.125
4/26/2023 18:29:14.590,-1.668,1.152,-0.309
4/26/2023 18:29:14.600,-1.344,0.652,0.168
4/26/2023 18:29:14.610,-1.055,0.672,0.34
4/26/2023 18:29:14.620,-0.695,0.777,-0.098
4/26/2023 18:29:14.630,-0.855,0.555,-0.715
4/26/2023 18:29:14.640,-1.473,0.309,-1.195
4/26/2023 18:29:14.650,-1.641,0.676,-1.105
4/26/2023 18:29:14.660,-1.348,0.902,-0.434
4/26/2023 18:29:14.670,-1.066,0.566,-0.051
4/26/2023 18:29:14.680,-0.934,0.613,-0.18
4/26/2023 18:29:14.690,-0.957,0.516,-0.316
4/26/2023 18:29:14.700,-0.988,0.453,-0.23
4/26/2023 18:29:14.710,-0.996,0.262,-0.121
4/26/2023 18:29:14.720,-1.02,0,-0.129
4/26/2023 18:29:14.730,-1.051,-0.09,-0.168
4/26/2023 18:29:14.740,-1.047,-0.012,-0.242
4/26/2023 18:29:14.750,-1.039,-0.074,-0.309
4/26/2023 18:29:14.760,-1.082,-0.113,-0.266
4/26/2023 18:29:14.770,-1.066,0.02,-0.266
4/26/2023 18:29:14.780,-1.055,-0.016,-0.195
4/26/2023 18:29:14.790,-1.035,0.039,-0.238
4/26/2023 18:29:14.800,-1.012,0.02,-0.242
4/26/2023 18:29:14.810,-0.988,0.082,-0.313
4/26/2023 18:29:14.820,-0.977,0.031,-0.273
4/26/2023 18:29:14.830,-0.992,-0.02,-0.242
4/26/2023 18:29:14.840,-1.004,0.012,-0.156
4/26/2023 18:29:14.850,-1,-0.09,-0.074
4/26/2023 18:29:14.860,-1.008,-0.063,-0.074
4/26/2023 18:29:14.870,-0.973,-0.063,-0.102
4/26/2023 18:29:14.880,-0.977,-0.078,-0.133
4/26/2023 18:29:14.890,-0.973,-0.023,-0.172
4/26/2023 18:29:14.900,-0.957,-0.039,-0.207
4/26/2023 18:29:14.910,-0.965,-0.109,-0.184
4/26/2023 18:29:14.920,-0.969,-0.105,-0.176
4/26/2023 18:29:14.930,-0.988,-0.176,-0.164
4/26/2023 18:29:14.940,-1.02,-0.191,-0.16
4/26/2023 18:29:14.950,-1.043,-0.203,-0.145
4/26/2023 18:29:14.960,-1.066,-0.172,-0.141
4/26/2023 18:29:14.970,-1.125,-0.145,-0.102
4/26/2023 18:29:14.980,-1.242,-0.16,-0.07
4/26/2023 18:29:14.990,-1.309,-0.16,-0.043
4/26/2023 18:29:15.000,-1.371,-0.148,0.008
4/26/2023 18:29:15.010,-1.391,-0.156,0.098
4/26/2023 18:29:15.020,-1.387,-0.152,0.168
4/26/2023 18:29:15.030,-1.449,-0.188,0.105
4/26/2023 18:29:15.040,-1.578,-0.25,-0.012
4/26/2023 18:29:15.050,-1.699,-0.344,-0.113
4/26/2023 18:29:15.060,-1.789,-0.48,-0.109
4/26/2023 18:29:15.070,-1.914,-0.621,-0.023
4/26/2023 18:29:15.080,-2.102,-0.836,-0.027
4/26/2023 18:29:15.090,-2.148,-1.047,-0.133
4/26/2023 18:29:15.100,-2.223,-1.184,-0.18
4/26/2023 18:29:15.110,-2.34,-1.078,-0.156
4/26/2023 18:29:15.120,-2.684,-1.078,-0.113
4/26/2023 18:29:15.130,-2.625,-0.762,-0.23
4/26/2023 18:29:15.140,-2.426,0.195,-0.621
4/26/2023 18:29:15.150,-2.449,0.613,-0.863
4/26/2023 18:29:15.160,-2.445,-0.324,-0.703
4/26/2023 18:29:15.170,-2.063,-0.809,-0.75
4/26/2023 18:29:15.180,-1.52,-0.367,-0.66
4/26/2023 18:29:15.190,-1.203,-0.191,-0.609
4/26/2023 18:29:15.200,-0.969,-0.152,-0.648
4/26/2023 18:29:15.210,-0.602,-0.105,-0.707
4/26/2023 18:29:15.220,-0.574,-0.59,-0.434
4/26/2023 18:29:15.230,-0.5,-0.855,-0.207
4/26/2023 18:29:15.240,-0.273,-0.887,-0.086
4/26/2023 18:29:15.250,-0.121,-0.895,-0.043
4/26/2023 18:29:15.260,-0.082,-0.887,-0.047
4/26/2023 18:29:15.270,-0.117,-0.777,-0.074
4/26/2023 18:29:15.280,-0.23,-0.582,-0.078
4/26/2023 18:29:15.290,-0.387,-0.41,-0.117
4/26/2023 18:29:15.300,-0.301,-0.383,-0.113
4/26/2023 18:29:15.310,-0.34,-0.266,-0.129
4/26/2023 18:29:15.320,-0.387,-0.191,-0.129
4/26/2023 18:29:15.330,-0.406,-0.211,-0.121
4/26/2023 18:29:15.340,-0.457,-0.188,-0.109
4/26/2023 18:29:15.350,-0.59,-0.164,-0.129
4/26/2023 18:29:15.360,-0.73,-0.109,-0.121
4/26/2023 18:29:15.370,-0.848,-0.074,-0.117
4/26/2023 18:29:15.380,-0.98,-0.121,-0.102
4/26/2023 18:29:15.390,-1.129,-0.152,-0.09
4/26/2023 18:29:15.400,-1.309,-0.148,-0.063
4/26/2023 18:29:15.410,-1.535,-0.234,-0.016
4/26/2023 18:29:15.420,-1.848,-0.281,0
4/26/2023 18:29:15.430,-2.223,-0.184,-0.043
4/26/2023 18:29:15.440,-2.602,0.098,-0.109
4/26/2023 18:29:15.450,-2.91,0.5,-0.258
4/26/2023 18:29:15.460,-3.207,0.926,-0.508
4/26/2023 18:29:15.470,-3.313,1.18,-0.777
4/26/2023 18:29:15.480,-2.535,1.23,-0.844
4/26/2023 18:29:15.490,-1.914,1.852,-0.93
4/26/2023 18:29:15.500,-1.688,2.715,-1.055
4/26/2023 18:29:15.510,-1.238,3.391,-0.785
4/26/2023 18:29:15.520,-1.262,3.398,-0.457
4/26/2023 18:29:15.530,-1.461,2.723,-0.328
4/26/2023 18:29:15.540,-1.359,2.234,-0.301
4/26/2023 18:29:15.550,-2.387,1.109,-0.453
4/26/2023 18:29:15.560,-2.348,-1.031,0.043
4/26/2023 18:29:15.570,-1.082,-2.383,0.516
4/26/2023 18:29:15.580,-0.512,-1.113,0.918
4/26/2023 18:29:15.590,-1.727,1.27,0.004
4/26/2023 18:29:15.600,-1.906,1.332,-0.176
4/26/2023 18:29:15.610,-1.48,0.75,0.309
4/26/2023 18:29:15.620,-1.203,0.738,0.25
4/26/2023 18:29:15.630,-0.859,0.867,-0.098
4/26/2023 18:29:15.640,-0.918,0.66,-0.602
4/26/2023 18:29:15.650,-1.273,0.301,-0.953
4/26/2023 18:29:15.660,-1.598,0.656,-1.055
4/26/2023 18:29:15.670,-1.352,0.746,-0.645
4/26/2023 18:29:15.680,-1.191,0.668,-0.066
4/26/2023 18:29:15.690,-0.863,0.531,-0.113
4/26/2023 18:29:15.700,-1.008,0.375,-0.293
4/26/2023 18:29:15.710,-1.012,0.445,-0.383
4/26/2023 18:29:15.720,-1.031,0.41,-0.293
4/26/2023 18:29:15.730,-1.016,0.266,-0.164
4/26/2023 18:29:15.740,-1.023,0.113,-0.188
4/26/2023 18:29:15.750,-1.031,-0.133,-0.238
4/26/2023 18:29:15.760,-1.047,-0.145,-0.227
4/26/2023 18:29:15.770,-1.051,-0.094,-0.23
4/26/2023 18:29:15.780,-1.051,-0.082,-0.305
4/26/2023 18:29:15.790,-1.031,-0.035,-0.316
4/26/2023 18:29:15.800,-1.047,-0.098,-0.223
4/26/2023 18:29:15.810,-1.004,0.016,-0.234
4/26/2023 18:29:15.820,-1.016,0.016,-0.195
4/26/2023 18:29:15.830,-0.973,0.055,-0.164
4/26/2023 18:29:15.840,-0.996,0.02,-0.211
4/26/2023 18:29:15.850,-1.012,0,-0.223
4/26/2023 18:29:15.860,-0.977,-0.012,-0.23
4/26/2023 18:29:15.870,-0.969,-0.078,-0.211
4/26/2023 18:29:15.880,-0.965,-0.023,-0.148
4/26/2023 18:29:15.890,-0.969,-0.059,-0.094
4/26/2023 18:29:15.900,-0.961,-0.082,-0.082
4/26/2023 18:29:15.910,-0.996,-0.156,-0.129
4/26/2023 18:29:15.920,-1.012,-0.121,-0.199
4/26/2023 18:29:15.930,-1.004,-0.094,-0.203
4/26/2023 18:29:15.940,-1.02,-0.16,-0.168
4/26/2023 18:29:15.950,-1.035,-0.223,-0.156
4/26/2023 18:29:15.960,-1.02,-0.211,-0.156
4/26/2023 18:29:15.970,-1.043,-0.203,-0.145
4/26/2023 18:29:15.980,-1.094,-0.211,-0.16
4/26/2023 18:29:15.990,-1.168,-0.188,-0.191
4/26/2023 18:29:16.000,-1.27,-0.184,-0.195
4/26/2023 18:29:16.010,-1.402,-0.16,-0.086
4/26/2023 18:29:16.020,-1.398,-0.156,0.035
4/26/2023 18:29:16.030,-1.422,-0.188,0.168
4/26/2023 18:29:16.040,-1.484,-0.215,0.203
4/26/2023 18:29:16.050,-1.574,-0.266,0.094
4/26/2023 18:29:16.060,-1.68,-0.348,-0.016
4/26/2023 18:29:16.070,-1.793,-0.465,-0.074
4/26/2023 18:29:16.080,-1.84,-0.594,-0.047
4/26/2023 18:29:16.090,-1.953,-0.75,0.012
4/26/2023 18:29:16.100,-2.152,-0.984,-0.047
4/26/2023 18:29:16.110,-2.141,-1.211,-0.152
4/26/2023 18:29:16.120,-2.168,-1.141,-0.219
4/26/2023 18:29:16.130,-2.434,-1.203,-0.184
4/26/2023 18:29:16.140,-2.652,-0.977,-0.191
4/26/2023 18:29:16.150,-2.441,-0.039,-0.492
4/26/2023 18:29:16.160,-2.359,0.734,-0.938
4/26/2023 18:29:16.170,-2.445,0.102,-0.793
4/26/2023 18:29:16.180,-2.145,-0.73,-0.738
4/26/2023 18:29:16.190,-1.629,-0.609,-0.715
4/26/2023 18:29:16.200,-1.309,-0.258,-0.656
4/26/2023 18:29:16.210,-1,-0.078,-0.5
4/26/2023 18:29:16.220,-0.504,-0.02,-0.629
4/26/2023 18:29:16.230,-0.414,-0.633,-0.551
4/26/2023 18:29:16.240,-0.445,-0.996,-0.262
4/26/2023 18:29:16.250,-0.277,-1.063,-0.063
4/26/2023 18:29:16.260,-0.117,-1.051,0.031
4/26/2023 18:29:16.270,-0.066,-1.008,0.055
4/26/2023 18:29:16.280,-0.094,-0.852,0.043
4/26/2023 18:29:16.290,-0.199,-0.648,0.004
4/26/2023 18:29:16.300,-0.305,-0.496,0.008
4/26/2023 18:29:16.310,-0.488,-0.316,-0.031
4/26/2023 18:29:16.320,-0.535,-0.262,-0.078
4/26/2023 18:29:16.330,-0.516,-0.199,-0.074
4/26/2023 18:29:16.340,-0.566,-0.188,-0.051
4/26/2023 18:29:16.350,-0.637,-0.211,-0.023
4/26/2023 18:29:16.360,-0.738,-0.188,-0.02
4/26/2023 18:29:16.370,-0.852,-0.148,-0.035
4/26/2023 18:29:16.380,-1.012,-0.117,-0.078
4/26/2023 18:29:16.390,-1.156,-0.063,-0.105
4/26/2023 18:29:16.400,-1.285,-0.027,-0.117
4/26/2023 18:29:16.410,-1.426,-0.016,-0.102
4/26/2023 18:29:16.420,-1.609,-0.066,-0.047
4/26/2023 18:29:16.430,-1.852,-0.113,0.023
4/26/2023 18:29:16.440,-2.25,-0.191,-0.023
4/26/2023 18:29:16.450,-2.688,-0.125,-0.16
4/26/2023 18:29:16.460,-2.934,0.23,-0.242
4/26/2023 18:29:16.470,-3,0.617,-0.438
4/26/2023 18:29:16.480,-2.918,0.848,-0.734
4/26/2023 18:29:16.490,-2.5,1.238,-1.078
4/26/2023 18:29:16.500,-2.16,2.012,-1.129
4/26/2023 18:29:16.510,-1.586,2.996,-0.789
4/26/2023 18:29:16.520,-1.273,3.535,-0.613
4/26/2023 18:29:16.530,-1.59,3.184,-0.523
4/26/2023 18:29:16.540,-1.344,2.57,-0.535
4/26/2023 18:29:16.550,-1.227,2.148,-0.469
4/26/2023 18:29:16.560,-1.113,1.801,-0.328
4/26/2023 18:29:16.570,-1.707,1.387,-0.262
4/26/2023 18:29:16.580,-2.578,-0.832,-0.617
4/26/2023 18:29:16.590,-1.359,-3.223,-0.066
4/26/2023 18:29:16.600,-0.891,-2.176,1.363
4/26/2023 18:29:16.610,-1.59,1.027,1.059
4/26/2023 18:29:16.620,-1.66,1.457,0.387
4/26/2023 18:29:16.630,-1.426,1.203,0.191
4/26/2023 18:29:16.640,-1.172,0.824,0.152
4/26/2023 18:29:16.650,-1.055,0.996,-0.344
4/26/2023 18:29:16.660,-1.148,0.617,-0.738
4/26/2023 18:29:16.670,-1.309,0.348,-0.898
4/26/2023 18:29:16.680,-1.234,0.609,-0.871
4/26/2023 18:29:16.690,-1.246,0.699,-0.441
4/26/2023 18:29:16.700,-1.113,0.727,-0.172
4/26/2023 18:29:16.710,-0.988,0.301,-0.148
4/26/2023 18:29:16.720,-0.996,0.289,-0.164
4/26/2023 18:29:16.730,-1.02,0.5,-0.258
4/26/2023 18:29:16.740,-1.055,0.227,-0.184
4/26/2023 18:29:16.750,-1.074,0.09,-0.121
4/26/2023 18:29:16.760,-1.113,0.164,-0.258
4/26/2023 18:29:16.770,-1.059,-0.016,-0.332
4/26/2023 18:29:16.780,-1.07,0.027,-0.32
4/26/2023 18:29:16.790,-1.059,0.047,-0.293
4/26/2023 18:29:16.800,-1.059,-0.016,-0.211
4/26/2023 18:29:16.810,-1.051,0.02,-0.234
4/26/2023 18:29:16.820,-1.027,0.008,-0.301
4/26/2023 18:29:16.830,-1.012,0.012,-0.375
4/26/2023 18:29:16.840,-0.977,0.047,-0.34
4/26/2023 18:29:16.850,-0.984,0.004,-0.258
4/26/2023 18:29:16.860,-1.02,-0.059,-0.211
4/26/2023 18:29:16.870,-1.027,-0.059,-0.184
4/26/2023 18:29:16.880,-0.984,-0.094,-0.168
4/26/2023 18:29:16.890,-0.961,-0.07,-0.152
4/26/2023 18:29:16.900,-0.973,-0.012,-0.148
4/26/2023 18:29:16.910,-0.98,-0.016,-0.156
4/26/2023 18:29:16.920,-0.93,-0.063,-0.184
4/26/2023 18:29:16.930,-0.93,-0.063,-0.195
4/26/2023 18:29:16.940,-0.957,-0.059,-0.16
4/26/2023 18:29:16.950,-0.953,-0.199,-0.137
4/26/2023 18:29:16.960,-1.016,-0.18,-0.125
4/26/2023 18:29:16.970,-1.063,-0.203,-0.105
4/26/2023 18:29:16.980,-1.086,-0.16,-0.113
4/26/2023 18:29:16.990,-1.125,-0.145,-0.109
4/26/2023 18:29:17.000,-1.215,-0.148,-0.117
4/26/2023 18:29:17.010,-1.281,-0.148,-0.086
4/26/2023 18:29:17.020,-1.324,-0.141,-0.063
4/26/2023 18:29:17.030,-1.352,-0.168,0.047
4/26/2023 18:29:17.040,-1.375,-0.191,0.145
4/26/2023 18:29:17.050,-1.453,-0.23,0.145
4/26/2023 18:29:17.060,-1.59,-0.305,0.039
4/26/2023 18:29:17.070,-1.684,-0.359,-0.082
4/26/2023 18:29:17.080,-1.816,-0.496,-0.07
4/26/2023 18:29:17.090,-1.938,-0.625,0.004
4/26/2023 18:29:17.100,-2.109,-0.828,-0.023
4/26/2023 18:29:17.110,-2.156,-0.977,-0.105
4/26/2023 18:29:17.120,-2.215,-1.066,-0.117
4/26/2023 18:29:17.130,-2.395,-1.094,-0.117
4/26/2023 18:29:17.140,-2.715,-1.16,-0.098
4/26/2023 18:29:17.150,-2.555,-0.898,-0.238
4/26/2023 18:29:17.160,-2.469,0.191,-0.695
4/26/2023 18:29:17.170,-2.488,0.746,-0.945
4/26/2023 18:29:17.180,-2.418,-0.219,-0.719
4/26/2023 18:29:17.190,-2.137,-1.02,-0.73
4/26/2023 18:29:17.200,-1.645,-0.574,-0.621
4/26/2023 18:29:17.210,-1.23,-0.375,-0.547
4/26/2023 18:29:17.220,-0.883,-0.164,-0.492
4/26/2023 18:29:17.230,-0.539,-0.016,-0.723
4/26/2023 18:29:17.240,-0.457,-0.543,-0.504
4/26/2023 18:29:17.250,-0.375,-0.941,-0.266
4/26/2023 18:29:17.260,-0.195,-1.023,-0.113
4/26/2023 18:29:17.270,-0.09,-1.031,0.012
4/26/2023 18:29:17.280,-0.066,-0.973,0.055
4/26/2023 18:29:17.290,-0.098,-0.844,0.043
4/26/2023 18:29:17.300,-0.18,-0.676,0.008
4/26/2023 18:29:17.310,-0.289,-0.512,-0.02
4/26/2023 18:29:17.320,-0.438,-0.359,-0.07
4/26/2023 18:29:17.330,-0.504,-0.281,-0.148
4/26/2023 18:29:17.340,-0.488,-0.211,-0.137
4/26/2023 18:29:17.350,-0.547,-0.195,-0.129
4/26/2023 18:29:17.360,-0.609,-0.168,-0.109
4/26/2023 18:29:17.370,-0.707,-0.145,-0.113
4/26/2023 18:29:17.380,-0.824,-0.168,-0.113
4/26/2023 18:29:17.390,-1.004,-0.168,-0.09
4/26/2023 18:29:17.400,-1.176,-0.125,-0.121
4/26/2023 18:29:17.410,-1.348,-0.094,-0.141
4/26/2023 18:29:17.420,-1.539,-0.121,-0.109
4/26/2023 18:29:17.430,-1.816,-0.168,-0.094
4/26/2023 18:29:17.440,-2.16,-0.137,-0.117
4/26/2023 18:29:17.450,-2.555,0.051,-0.219
4/26/2023 18:29:17.460,-2.813,0.363,-0.305
4/26/2023 18:29:17.470,-2.938,0.633,-0.504
4/26/2023 18:29:17.480,-2.98,0.773,-0.754
4/26/2023 18:29:17.490,-2.699,1.047,-0.969
4/26/2023 18:29:17.500,-2.102,1.691,-1.066
4/26/2023 18:29:17.510,-1.789,2.484,-1.039
4/26/2023 18:29:17.520,-1.324,3.219,-0.77
4/26/2023 18:29:17.530,-1.363,3.391,-0.559
4/26/2023 18:29:17.540,-1.473,2.836,-0.465
4/26/2023 18:29:17.550,-1.289,2.387,-0.422
4/26/2023 18:29:17.560,-1.238,2.063,-0.375
4/26/2023 18:29:17.570,-1.301,1.66,-0.313
4/26/2023 18:29:17.580,-2.727,0.059,-0.59
4/26/2023 18:29:17.590,-1.918,-2.535,-0.168
4/26/2023 18:29:17.600,-0.707,-2.742,1.145
4/26/2023 18:29:17.610,-1.164,-0.094,1.516
4/26/2023 18:29:17.620,-1.633,1.285,0.566
4/26/2023 18:29:17.630,-1.387,1.191,0.016
4/26/2023 18:29:17.640,-1.211,0.742,-0.008
4/26/2023 18:29:17.650,-1.004,0.605,0.105
4/26/2023 18:29:17.660,-0.992,0.75,-0.359
4/26/2023 18:29:17.670,-1.188,0.313,-0.574
4/26/2023 18:29:17.680,-1.184,0.395,-0.652
4/26/2023 18:29:17.690,-1.355,0.922,-1.043
4/26/2023 18:29:17.700,-1.422,0.82,-0.809
4/26/2023 18:29:17.710,-1.203,0.555,-0.188
4/26/2023 18:29:17.720,-0.938,0.586,-0.188
4/26/2023 18:29:17.730,-0.961,0.371,-0.324
4/26/2023 18:29:17.740,-0.961,0.293,-0.23
4/26/2023 18:29:17.750,-1.023,0.219,-0.137
4/26/2023 18:29:17.760,-1.023,0.063,-0.102
4/26/2023 18:29:17.770,-1.066,-0.004,-0.152
4/26/2023 18:29:17.780,-1.063,-0.012,-0.234
4/26/2023 18:29:17.790,-1.055,0.016,-0.293
4/26/2023 18:29:17.800,-1.035,0.012,-0.301
4/26/2023 18:29:17.810,-1.047,-0.051,-0.207
4/26/2023 18:29:17.820,-1.004,0.016,-0.215
4/26/2023 18:29:17.830,-1.035,-0.02,-0.184
4/26/2023 18:29:17.840,-0.988,0.055,-0.223
4/26/2023 18:29:17.850,-1.031,-0.027,-0.238
4/26/2023 18:29:17.860,-0.984,0.016,-0.297
4/26/2023 18:29:17.870,-0.973,-0.016,-0.332
4/26/2023 18:29:17.880,-0.984,0.004,-0.27
4/26/2023 18:29:17.890,-1,-0.023,-0.211
4/26/2023 18:29:17.900,-0.973,-0.086,-0.102
4/26/2023 18:29:17.910,-0.992,-0.164,-0.074
4/26/2023 18:29:17.920,-0.961,-0.055,-0.113
4/26/2023 18:29:17.930,-0.953,-0.047,-0.152
4/26/2023 18:29:17.940,-0.965,-0.059,-0.18
4/26/2023 18:29:17.950,-0.969,-0.109,-0.199
4/26/2023 18:29:17.960,-0.973,-0.141,-0.18
4/26/2023 18:29:17.970,-0.988,-0.172,-0.168
4/26/2023 18:29:17.980,-1.004,-0.152,-0.172
4/26/2023 18:29:17.990,-1.039,-0.121,-0.18
4/26/2023 18:29:18.000,-1.098,-0.109,-0.203
4/26/2023 18:29:18.010,-1.203,-0.168,-0.199
4/26/2023 18:29:18.020,-1.309,-0.137,-0.145
4/26/2023 18:29:18.030,-1.332,-0.098,-0.051
4/26/2023 18:29:18.040,-1.348,-0.121,0.043
4/26/2023 18:29:18.050,-1.371,-0.156,0.129
4/26/2023 18:29:18.060,-1.434,-0.203,0.125
4/26/2023 18:29:18.070,-1.504,-0.246,0.02
4/26/2023 18:29:18.080,-1.625,-0.281,-0.066
4/26/2023 18:29:18.090,-1.695,-0.363,-0.082
4/26/2023 18:29:18.100,-1.77,-0.469,-0.047
4/26/2023 18:29:18.110,-1.828,-0.582,0.039
4/26/2023 18:29:18.120,-2.027,-0.766,0.055
4/26/2023 18:29:18.130,-2.188,-0.977,-0.043
4/26/2023 18:29:18.140,-2.195,-1.063,-0.148
4/26/2023 18:29:18.150,-2.301,-1.074,-0.156
4/26/2023 18:29:18.160,-2.578,-1.086,-0.098
4/26/2023 18:29:18.170,-2.52,-0.801,-0.285
4/26/2023 18:29:18.180,-2.414,0.129,-0.695
4/26/2023 18:29:18.190,-2.34,0.668,-0.91
4/26/2023 18:29:18.200,-2.309,-0.355,-0.652
4/26/2023 18:29:18.210,-1.977,-0.945,-0.688
4/26/2023 18:29:18.220,-1.523,-0.477,-0.613
4/26/2023 18:29:18.230,-1.109,-0.266,-0.547
4/26/2023 18:29:18.240,-0.781,-0.133,-0.551
4/26/2023 18:29:18.250,-0.473,-0.059,-0.738
4/26/2023 18:29:18.260,-0.504,-0.59,-0.461
4/26/2023 18:29:18.270,-0.461,-0.961,-0.207
4/26/2023 18:29:18.280,-0.277,-1.035,-0.051
4/26/2023 18:29:18.290,-0.148,-1.027,0.043
4/26/2023 18:29:18.300,-0.117,-0.965,0.059
4/26/2023 18:29:18.310,-0.145,-0.816,0.035
4/26/2023 18:29:18.320,-0.234,-0.605,-0.004
4/26/2023 18:29:18.330,-0.375,-0.383,-0.02
4/26/2023 18:29:18.340,-0.512,-0.215,-0.105
4/26/2023 18:29:18.350,-0.449,-0.23,-0.113
4/26/2023 18:29:18.360,-0.48,-0.215,-0.09
4/26/2023 18:29:18.370,-0.543,-0.227,-0.066
4/26/2023 18:29:18.380,-0.617,-0.211,-0.063
4/26/2023 18:29:18.390,-0.727,-0.148,-0.086
4/26/2023 18:29:18.400,-0.887,-0.102,-0.133
4/26/2023 18:29:18.410,-1.055,-0.098,-0.184
4/26/2023 18:29:18.420,-1.188,-0.094,-0.188
4/26/2023 18:29:18.430,-1.324,-0.082,-0.176
4/26/2023 18:29:18.440,-1.52,-0.082,-0.121
4/26/2023 18:29:18.450,-1.805,-0.18,-0.039
4/26/2023 18:29:18.460,-2.141,-0.227,-0.051
4/26/2023 18:29:18.470,-2.543,-0.117,-0.137
4/26/2023 18:29:18.480,-2.805,0.258,-0.203
4/26/2023 18:29:18.490,-2.926,0.625,-0.371
4/26/2023 18:29:18.500,-2.977,0.797,-0.645
4/26/2023 18:29:18.510,-2.609,1.07,-0.887
4/26/2023 18:29:18.520,-2.117,1.688,-1.047
4/26/2023 18:29:18.530,-1.758,2.543,-0.84
4/26/2023 18:29:18.540,-1.285,3.254,-0.551
4/26/2023 18:29:18.550,-1.484,3.336,-0.457
4/26/2023 18:29:18.560,-1.504,2.688,-0.465
4/26/2023 18:29:18.570,-1.375,2.219,-0.445
4/26/2023 18:29:18.580,-1.156,1.91,-0.328
4/26/2023 18:29:18.590,-1.434,1.469,-0.25
4/26/2023 18:29:18.600,-2.664,-0.41,-0.695
4/26/2023 18:29:18.610,-1.578,-2.73,-0.227
4/26/2023 18:29:18.620,-0.824,-2.422,1.371
4/26/2023 18:29:18.630,-1.609,0.871,1.242
4/26/2023 18:29:18.640,-1.836,1.629,0.41
4/26/2023 18:29:18.650,-1.496,1.25,0.18
4/26/2023 18:29:18.660,-1.227,0.711,0.145
4/26/2023 18:29:18.670,-0.988,0.891,-0.145
4/26/2023 18:29:18.680,-0.961,0.738,-0.613
4/26/2023 18:29:18.690,-1.219,0.316,-0.828
4/26/2023 18:29:18.700,-1.297,0.527,-0.938
4/26/2023 18:29:18.710,-1.184,0.703,-0.555
4/26/2023 18:29:18.720,-1.168,0.555,-0.188
4/26/2023 18:29:18.730,-1.09,0.422,-0.215
4/26/2023 18:29:18.740,-1.027,0.559,-0.289
4/26/2023 18:29:18.750,-0.992,0.52,-0.211
4/26/2023 18:29:18.760,-1.066,0.262,-0.156
4/26/2023 18:29:18.770,-1.055,0.082,-0.117
4/26/2023 18:29:18.780,-1.102,0.137,-0.18
4/26/2023 18:29:18.790,-1.078,0.039,-0.301
4/26/2023 18:29:18.800,-1.059,-0.059,-0.316
4/26/2023 18:29:18.810,-1.035,0.039,-0.309
4/26/2023 18:29:18.820,-1.063,0.012,-0.266
4/26/2023 18:29:18.830,-1.047,-0.02,-0.246
4/26/2023 18:29:18.840,-1.027,-0.004,-0.254
4/26/2023 18:29:18.850,-1.016,-0.008,-0.281
4/26/2023 18:29:18.860,-0.984,0.043,-0.313
4/26/2023 18:29:18.870,-0.98,0.016,-0.309
4/26/2023 18:29:18.880,-0.988,0.008,-0.246
4/26/2023 18:29:18.890,-1.004,-0.102,-0.188
4/26/2023 18:29:18.900,-1.02,-0.094,-0.16
4/26/2023 18:29:18.910,-1,-0.125,-0.176
4/26/2023 18:29:18.920,-0.953,-0.098,-0.184
4/26/2023 18:29:18.930,-0.949,-0.051,-0.191
4/26/2023 18:29:18.940,-0.949,-0.023,-0.184
4/26/2023 18:29:18.950,-0.957,-0.039,-0.176
4/26/2023 18:29:18.960,-0.957,-0.043,-0.133
4/26/2023 18:29:18.970,-0.965,-0.09,-0.113
4/26/2023 18:29:18.980,-0.98,-0.145,-0.094
4/26/2023 18:29:18.990,-1.043,-0.172,-0.086
4/26/2023 18:29:19.000,-1.094,-0.188,-0.09
4/26/2023 18:29:19.010,-1.113,-0.16,-0.109
4/26/2023 18:29:19.020,-1.168,-0.156,-0.137
4/26/2023 18:29:19.030,-1.234,-0.16,-0.137
4/26/2023 18:29:19.040,-1.281,-0.145,-0.117
4/26/2023 18:29:19.050,-1.309,-0.117,-0.066
4/26/2023 18:29:19.060,-1.332,-0.148,0.047
4/26/2023 18:29:19.070,-1.355,-0.156,0.145
4/26/2023 18:29:19.080,-1.426,-0.18,0.121
4/26/2023 18:29:19.090,-1.547,-0.242,0.004
4/26/2023 18:29:19.100,-1.66,-0.313,-0.117
4/26/2023 18:29:19.110,-1.777,-0.438,-0.117
4/26/2023 18:29:19.120,-1.875,-0.527,-0.031
4/26/2023 18:29:19.130,-2.059,-0.738,-0.008
4/26/2023 18:29:19.140,-2.121,-0.93,-0.086
4/26/2023 18:29:19.150,-2.188,-1.047,-0.137
4/26/2023 18:29:19.160,-2.328,-1.02,-0.152
4/26/2023 18:29:19.170,-2.629,-1.105,-0.145
4/26/2023 18:29:19.180,-2.535,-0.949,-0.223
4/26/2023 18:29:19.190,-2.457,0.031,-0.598
4/26/2023 18:29:19.200,-2.457,0.75,-0.906
4/26/2023 18:29:19.210,-2.398,-0.012,-0.723
4/26/2023 18:29:19.220,-2.172,-1.035,-0.633
4/26/2023 18:29:19.230,-1.727,-0.746,-0.645
4/26/2023 18:29:19.240,-1.246,-0.402,-0.535
4/26/2023 18:29:19.250,-0.965,-0.184,-0.484
4/26/2023 18:29:19.260,-0.547,-0.016,-0.711
4/26/2023 18:29:19.270,-0.426,-0.445,-0.535
4/26/2023 18:29:19.280,-0.434,-0.895,-0.254
4/26/2023 18:29:19.290,-0.27,-1.016,-0.063
4/26/2023 18:29:19.300,-0.105,-1.047,0.055
4/26/2023 18:29:19.310,-0.07,-0.996,0.07
4/26/2023 18:29:19.320,-0.121,-0.855,0.043
4/26/2023 18:29:19.330,-0.207,-0.648,0
4/26/2023 18:29:19.340,-0.309,-0.438,-0.051
4/26/2023 18:29:19.350,-0.496,-0.262,-0.105
4/26/2023 18:29:19.360,-0.594,-0.211,-0.18
4/26/2023 18:29:19.370,-0.563,-0.176,-0.117
4/26/2023 18:29:19.380,-0.566,-0.195,-0.09
4/26/2023 18:29:19.390,-0.621,-0.23,-0.074
4/26/2023 18:29:19.400,-0.766,-0.223,-0.066
4/26/2023 18:29:19.410,-0.922,-0.199,-0.098
4/26/2023 18:29:19.420,-1.055,-0.191,-0.125
4/26/2023 18:29:19.430,-1.191,-0.172,-0.152
4/26/2023 18:29:19.440,-1.34,-0.141,-0.16
4/26/2023 18:29:19.450,-1.555,-0.168,-0.102
4/26/2023 18:29:19.460,-1.824,-0.215,-0.055
4/26/2023 18:29:19.470,-2.133,-0.152,-0.094
4/26/2023 18:29:19.480,-2.477,0.105,-0.168
4/26/2023 18:29:19.490,-2.754,0.406,-0.262
4/26/2023 18:29:19.500,-2.953,0.676,-0.484
4/26/2023 18:29:19.510,-3,0.879,-0.766
4/26/2023 18:29:19.520,-2.727,1.156,-0.906
4/26/2023 18:29:19.530,-2.051,1.621,-0.832
4/26/2023 18:29:19.540,-1.703,2.203,-0.848
4/26/2023 18:29:19.550,-1.395,2.965,-0.801
4/26/2023 18:29:19.560,-1.336,3.18,-0.652
4/26/2023 18:29:19.570,-1.496,2.742,-0.523
4/26/2023 18:29:19.580,-1.285,2.25,-0.387
4/26/2023 18:29:19.590,-1.297,2.102,-0.238
4/26/2023 18:29:19.600,-1.195,1.773,-0.223
4/26/2023 18:29:19.610,-1.277,1.465,-0.211
4/26/2023 18:29:19.620,-2.766,0.605,-0.305
4/26/2023 18:29:19.630,-2.164,-2.391,0.203
4/26/2023 18:29:19.640,-0.688,-2.973,1.293
4/26/2023 18:29:19.650,-0.754,-0.699,1.73
4/26/2023 18:29:19.660,-1.434,1.172,0.41
4/26/2023 18:29:19.670,-1.594,1.09,-0.438
4/26/2023 18:29:19.680,-1.273,0.66,-0.008
4/26/2023 18:29:19.690,-1.074,0.887,0
4/26/2023 18:29:19.700,-1.164,1.023,-0.613
4/26/2023 18:29:19.710,-1.566,0.547,-1.223
4/26/2023 18:29:19.720,-1.703,0.453,-1.156
4/26/2023 18:29:19.730,-1.25,0.66,-0.41
4/26/2023 18:29:19.740,-0.973,0.625,0.023
4/26/2023 18:29:19.750,-0.914,0.422,-0.195
4/26/2023 18:29:19.760,-1,0.258,-0.297
4/26/2023 18:29:19.770,-1.012,0.313,-0.254
4/26/2023 18:29:19.780,-1.031,0.301,-0.141
4/26/2023 18:29:19.790,-1.059,0.152,-0.145
4/26/2023 18:29:19.800,-1.051,-0.004,-0.156
4/26/2023 18:29:19.810,-1.047,0.031,-0.207
4/26/2023 18:29:19.820,-1.059,-0.047,-0.301
4/26/2023 18:29:19.830,-1.074,-0.09,-0.27
4/26/2023 18:29:19.840,-1.063,0.035,-0.223
4/26/2023 18:29:19.850,-1.051,0.008,-0.176
4/26/2023 18:29:19.860,-1.027,0.016,-0.207
4/26/2023 18:29:19.870,-1.027,0.008,-0.258
4/26/2023 18:29:19.880,-0.984,0.09,-0.344
4/26/2023 18:29:19.890,-0.984,0.109,-0.324
4/26/2023 18:29:19.900,-0.996,-0.008,-0.238
4/26/2023 18:29:19.910,-1.016,-0.031,-0.164
4/26/2023 18:29:19.920,-1.031,-0.066,-0.117
4/26/2023 18:29:19.930,-1.027,-0.082,-0.129
4/26/2023 18:29:19.940,-1,-0.051,-0.137
4/26/2023 18:29:19.950,-0.988,-0.039,-0.129
4/26/2023 18:29:19.960,-0.984,-0.047,-0.152
4/26/2023 18:29:19.970,-0.969,-0.016,-0.16
4/26/2023 18:29:19.980,-0.965,-0.047,-0.145
4/26/2023 18:29:19.990,-0.977,-0.105,-0.117
4/26/2023 18:29:20.000,-1.016,-0.141,-0.133
4/26/2023 18:29:20.010,-1.047,-0.152,-0.141
4/26/2023 18:29:20.020,-1.07,-0.156,-0.137
4/26/2023 18:29:20.030,-1.121,-0.18,-0.125
4/26/2023 18:29:20.040,-1.195,-0.188,-0.117
4/26/2023 18:29:20.050,-1.277,-0.145,-0.082
4/26/2023 18:29:20.060,-1.344,-0.152,-0.027
4/26/2023 18:29:20.070,-1.355,-0.16,0.07
4/26/2023 18:29:20.080,-1.355,-0.191,0.148
4/26/2023 18:29:20.090,-1.398,-0.203,0.152
4/26/2023 18:29:20.100,-1.516,-0.277,0.055
4/26/2023 18:29:20.110,-1.602,-0.324,-0.066
4/26/2023 18:29:20.120,-1.707,-0.426,-0.098
4/26/2023 18:29:20.130,-1.84,-0.555,-0.078
4/26/2023 18:29:20.140,-2.008,-0.715,-0.117
4/26/2023 18:29:20.150,-1.992,-0.91,-0.184
4/26/2023 18:29:20.160,-2.109,-1.07,-0.195
4/26/2023 18:29:20.170,-2.293,-1.016,-0.191
4/26/2023 18:29:20.180,-2.563,-1.039,-0.098
4/26/2023 18:29:20.190,-2.66,-0.84,-0.156
4/26/2023 18:29:20.200,-2.488,-0.141,-0.547
4/26/2023 18:29:20.210,-2.512,0.504,-0.887
4/26/2023 18:29:20.220,-2.621,-0.047,-0.684
4/26/2023 18:29:20.230,-2.313,-0.664,-0.656
4/26/2023 18:29:20.240,-1.785,-0.496,-0.719
4/26/2023 18:29:20.250,-1.387,-0.273,-0.625
4/26/2023 18:29:20.260,-1.039,-0.297,-0.473
4/26/2023 18:29:20.270,-0.512,-0.02,-0.578
4/26/2023 18:29:20.280,-0.516,-0.418,-0.434
4/26/2023 18:29:20.290,-0.543,-0.809,-0.09
4/26/2023 18:29:20.300,-0.316,-0.918,0.027
4/26/2023 18:29:20.310,-0.109,-0.914,0.09
4/26/2023 18:29:20.320,-0.051,-0.883,0.086
4/26/2023 18:29:20.330,-0.098,-0.805,0.066
4/26/2023 18:29:20.340,-0.18,-0.68,0.055
4/26/2023 18:29:20.350,-0.281,-0.512,0.066
4/26/2023 18:29:20.360,-0.375,-0.387,0.051
4/26/2023 18:29:20.370,-0.398,-0.348,0.004
4/26/2023 18:29:20.380,-0.473,-0.27,-0.004
4/26/2023 18:29:20.390,-0.516,-0.207,0
4/26/2023 18:29:20.400,-0.563,-0.156,0.004
4/26/2023 18:29:20.410,-0.645,-0.117,-0.016
4/26/2023 18:29:20.420,-0.758,-0.066,-0.043
4/26/2023 18:29:20.430,-0.871,-0.047,-0.074
4/26/2023 18:29:20.440,-0.996,-0.055,-0.063
4/26/2023 18:29:20.450,-1.109,-0.031,-0.051
4/26/2023 18:29:20.460,-1.25,-0.059,-0.031
4/26/2023 18:29:20.470,-1.449,-0.125,0.023
4/26/2023 18:29:20.480,-1.715,-0.199,0.086
4/26/2023 18:29:20.490,-2.055,-0.191,0.027
4/26/2023 18:29:20.500,-2.449,0.012,-0.078
4/26/2023 18:29:20.510,-2.805,0.344,-0.25
4/26/2023 18:29:20.520,-3.094,0.641,-0.547
4/26/2023 18:29:20.530,-3.215,0.797,-0.84
4/26/2023 18:29:20.540,-2.922,1.094,-1.117
4/26/2023 18:29:20.550,-2.141,1.777,-1.168
4/26/2023 18:29:20.560,-1.691,2.672,-1.148
4/26/2023 18:29:20.570,-1.254,3.352,-0.801
4/26/2023 18:29:20.580,-1.227,3.402,-0.496
4/26/2023 18:29:20.590,-1.539,2.785,-0.406
4/26/2023 18:29:20.600,-1.293,2.281,-0.391
4/26/2023 18:29:20.610,-1.914,1.738,-0.227
4/26/2023 18:29:20.620,-2.426,-0.391,-0.25
4/26/2023 18:29:20.630,-1.102,-2.332,0.129
4/26/2023 18:29:20.640,-0.645,-2.012,1.258
4/26/2023 18:29:20.650,-1.695,0.93,0.734
4/26/2023 18:29:20.660,-2.063,1.719,0
4/26/2023 18:29:20.670,-1.609,1.098,0.254
4/26/2023 18:29:20.680,-1.246,0.992,0.195
4/26/2023 18:29:20.690,-0.934,0.969,-0.148
4/26/2023 18:29:20.700,-0.891,0.547,-0.492
4/26/2023 18:29:20.710,-1.094,0.418,-0.824
4/26/2023 18:29:20.720,-1.508,0.859,-1.086
4/26/2023 18:29:20.730,-1.359,0.738,-0.539
4/26/2023 18:29:20.740,-1.109,0.684,-0.055
4/26/2023 18:29:20.750,-0.777,0.375,-0.16
4/26/2023 18:29:20.760,-1.008,0.227,-0.281
4/26/2023 18:29:20.770,-1.031,0.508,-0.293
4/26/2023 18:29:20.780,-1.031,0.348,-0.184
4/26/2023 18:29:20.790,-1.055,0.012,-0.141
4/26/2023 18:29:20.800,-1.078,0.023,-0.195
4/26/2023 18:29:20.810,-1.023,0.016,-0.297
4/26/2023 18:29:20.820,-1.047,-0.07,-0.355
4/26/2023 18:29:20.830,-1.066,0,-0.297
4/26/2023 18:29:20.840,-1.066,0.02,-0.293
4/26/2023 18:29:20.850,-1.086,-0.051,-0.23
4/26/2023 18:29:20.860,-1.027,0.023,-0.234
4/26/2023 18:29:20.870,-1.039,-0.02,-0.219
4/26/2023 18:29:20.880,-1.012,0.043,-0.285
4/26/2023 18:29:20.890,-1.004,0.039,-0.27
4/26/2023 18:29:20.900,-1.016,-0.012,-0.238
4/26/2023 18:29:20.910,-1,-0.105,-0.188
4/26/2023 18:29:20.920,-1.004,-0.121,-0.164
4/26/2023 18:29:20.930,-1.008,-0.102,-0.172
4/26/2023 18:29:20.940,-0.988,-0.105,-0.152
4/26/2023 18:29:20.950,-0.98,-0.086,-0.152
4/26/2023 18:29:20.960,-0.973,-0.078,-0.156
4/26/2023 18:29:20.970,-0.953,-0.137,-0.164
4/26/2023 18:29:20.980,-0.938,-0.137,-0.16
4/26/2023 18:29:20.990,-0.949,-0.168,-0.109
4/26/2023 18:29:21.000,-0.988,-0.27,-0.078
4/26/2023 18:29:21.010,-1.012,-0.207,-0.082
4/26/2023 18:29:21.020,-1.043,-0.191,-0.082
4/26/2023 18:29:21.030,-1.074,-0.16,-0.063
4/26/2023 18:29:21.040,-1.156,-0.09,-0.055
4/26/2023 18:29:21.050,-1.238,-0.125,-0.051
4/26/2023 18:29:21.060,-1.32,-0.09,-0.063
4/26/2023 18:29:21.070,-1.367,-0.164,-0.043
4/26/2023 18:29:21.080,-1.359,-0.176,0.063
4/26/2023 18:29:21.090,-1.363,-0.164,0.168
4/26/2023 18:29:21.100,-1.434,-0.195,0.156
4/26/2023 18:29:21.110,-1.551,-0.246,0.027
4/26/2023 18:29:21.120,-1.637,-0.328,-0.125
4/26/2023 18:29:21.130,-1.727,-0.441,-0.172
4/26/2023 18:29:21.140,-1.82,-0.531,-0.148
4/26/2023 18:29:21.150,-1.961,-0.684,-0.148
4/26/2023 18:29:21.160,-2.035,-0.934,-0.219
4/26/2023 18:29:21.170,-2.031,-1.113,-0.246
4/26/2023 18:29:21.180,-2.184,-1.035,-0.277
4/26/2023 18:29:21.190,-2.52,-1.078,-0.148
4/26/2023 18:29:21.200,-2.758,-0.902,-0.203
4/26/2023 18:29:21.210,-2.473,0.027,-0.512
4/26/2023 18:29:21.220,-2.441,0.418,-0.84
4/26/2023 18:29:21.230,-2.484,0.055,-0.715
4/26/2023 18:29:21.240,-2.133,-0.496,-0.484
4/26/2023 18:29:21.250,-1.691,-0.609,-0.633
4/26/2023 18:29:21.260,-1.352,-0.211,-0.742
4/26/2023 18:29:21.270,-1.125,-0.238,-0.645
4/26/2023 18:29:21.280,-0.449,-0.148,-0.695
4/26/2023 18:29:21.290,-0.328,-0.543,-0.602
4/26/2023 18:29:21.300,-0.523,-0.965,-0.188
4/26/2023 18:29:21.310,-0.359,-1.07,-0.004
4/26/2023 18:29:21.320,-0.129,-1.051,0.066
4/26/2023 18:29:21.330,-0.039,-0.984,0.082
4/26/2023 18:29:21.340,-0.082,-0.871,0.055
4/26/2023 18:29:21.350,-0.184,-0.699,0.023
4/26/2023 18:29:21.360,-0.34,-0.484,0.008
4/26/2023 18:29:21.370,-0.441,-0.316,-0.043
4/26/2023 18:29:21.380,-0.469,-0.254,-0.078
4/26/2023 18:29:21.390,-0.496,-0.234,-0.098
4/26/2023 18:29:21.400,-0.531,-0.227,-0.074
4/26/2023 18:29:21.410,-0.574,-0.098,-0.051
4/26/2023 18:29:21.420,-0.66,-0.133,-0.051
4/26/2023 18:29:21.430,-0.813,-0.125,-0.066
4/26/2023 18:29:21.440,-0.961,-0.059,-0.094
4/26/2023 18:29:21.450,-1.07,-0.051,-0.098
4/26/2023 18:29:21.460,-1.195,-0.074,-0.105
4/26/2023 18:29:21.470,-1.336,-0.113,-0.086
4/26/2023 18:29:21.480,-1.535,-0.156,-0.016
4/26/2023 18:29:21.490,-1.824,-0.137,0
4/26/2023 18:29:21.500,-2.195,-0.117,-0.051
4/26/2023 18:29:21.510,-2.539,0.063,-0.117
4/26/2023 18:29:21.520,-2.777,0.418,-0.285
4/26/2023 18:29:21.530,-2.918,0.66,-0.535
4/26/2023 18:29:21.540,-2.941,0.742,-0.832
4/26/2023 18:29:21.550,-2.535,1.094,-1.027
4/26/2023 18:29:21.560,-2.07,1.828,-1.078
4/26/2023 18:29:21.570,-1.609,2.648,-0.816
4/26/2023 18:29:21.580,-1.219,3.301,-0.566
4/26/2023 18:29:21.590,-1.566,3.273,-0.477
4/26/2023 18:29:21.600,-1.527,2.531,-0.492
4/26/2023 18:29:21.610,-1.324,2.094,-0.41
4/26/2023 18:29:21.620,-1.133,1.852,-0.254
4/26/2023 18:29:21.630,-1.477,1.508,-0.113
4/26/2023 18:29:21.640,-3.008,-0.746,-0.375
4/26/2023 18:29:21.650,-1.406,-2.805,0.395
4/26/2023 18:29:21.660,-0.711,-2.48,1.5
4/26/2023 18:29:21.670,-1.293,0.465,0.984
4/26/2023 18:29:21.680,-1.688,1.453,-0.078
4/26/2023 18:29:21.690,-1.555,1.27,-0.133
4/26/2023 18:29:21.700,-1.289,1.051,0.043
4/26/2023 18:29:21.710,-1.168,1.145,-0.258
4/26/2023 18:29:21.720,-1.133,0.516,-0.652
4/26/2023 18:29:21.730,-1.363,0.234,-1.031
4/26/2023 18:29:21.740,-1.41,0.688,-0.98
4/26/2023 18:29:21.750,-1.164,0.832,-0.426
4/26/2023 18:29:21.760,-1.047,0.754,-0.082
4/26/2023 18:29:21.770,-0.949,0.453,-0.148
4/26/2023 18:29:21.780,-0.805,0.035,-0.199
4/26/2023 18:29:21.790,-1.051,0.328,-0.168
4/26/2023 18:29:21.800,-1.063,0.367,-0.125
4/26/2023 18:29:21.810,-1.078,0.031,-0.141
4/26/2023 18:29:21.820,-1.109,0.07,-0.184
4/26/2023 18:29:21.830,-1.059,0.047,-0.32
4/26/2023 18:29:21.840,-1.074,0.055,-0.34
4/26/2023 18:29:21.850,-1.078,0.078,-0.27
4/26/2023 18:29:21.860,-1.078,0.066,-0.223
4/26/2023 18:29:21.870,-1.047,0.098,-0.219
4/26/2023 18:29:21.880,-1.012,0.047,-0.238
4/26/2023 18:29:21.890,-1.027,0.082,-0.316
4/26/2023 18:29:21.900,-1,0.105,-0.332
4/26/2023 18:29:21.910,-1.012,0.039,-0.297
4/26/2023 18:29:21.920,-1.031,0,-0.195
4/26/2023 18:29:21.930,-1.055,-0.063,-0.156
4/26/2023 18:29:21.940,-1.055,-0.09,-0.125
4/26/2023 18:29:21.950,-1.016,-0.059,-0.117
4/26/2023 18:29:21.960,-1.02,-0.02,-0.102
4/26/2023 18:29:21.970,-0.988,-0.012,-0.102
4/26/2023 18:29:21.980,-0.938,-0.035,-0.137
4/26/2023 18:29:21.990,-0.938,-0.047,-0.145
4/26/2023 18:29:22.000,-0.953,-0.098,-0.156
4/26/2023 18:29:22.010,-0.965,-0.098,-0.176
4/26/2023 18:29:22.020,-0.992,-0.098,-0.18
4/26/2023 18:29:22.030,-1.016,-0.109,-0.145
4/26/2023 18:29:22.040,-1.055,-0.121,-0.117
4/26/2023 18:29:22.050,-1.105,-0.129,-0.102
4/26/2023 18:29:22.060,-1.191,-0.129,-0.102
4/26/2023 18:29:22.070,-1.27,-0.137,-0.102
4/26/2023 18:29:22.080,-1.305,-0.129,-0.047
4/26/2023 18:29:22.090,-1.324,-0.133,0.066
4/26/2023 18:29:22.100,-1.352,-0.156,0.16
4/26/2023 18:29:22.110,-1.41,-0.184,0.16
4/26/2023 18:29:22.120,-1.508,-0.246,0.031
4/26/2023 18:29:22.130,-1.617,-0.348,-0.117
4/26/2023 18:29:22.140,-1.738,-0.438,-0.18
4/26/2023 18:29:22.150,-1.82,-0.531,-0.172
4/26/2023 18:29:22.160,-2.027,-0.645,-0.078
4/26/2023 18:29:22.170,-2.223,-1.063,-0.117
4/26/2023 18:29:22.180,-2.266,-1.227,-0.199
4/26/2023 18:29:22.190,-2.219,-1.254,-0.211
4/26/2023 18:29:22.200,-2.742,-1.234,-0.125
4/26/2023 18:29:22.210,-2.793,-0.625,-0.23
4/26/2023 18:29:22.220,-2.574,0.258,-0.652
4/26/2023 18:29:22.230,-2.586,0.418,-0.859
4/26/2023 18:29:22.240,-2.531,-0.316,-0.715
4/26/2023 18:29:22.250,-2.07,-0.738,-0.77
4/26/2023 18:29:22.260,-1.594,-0.512,-0.754
4/26/2023 18:29:22.270,-1.254,-0.348,-0.586
4/26/2023 18:29:22.280,-0.867,-0.027,-0.5
4/26/2023 18:29:22.290,-0.387,-0.102,-0.652
4/26/2023 18:29:22.300,-0.473,-0.672,-0.313
4/26/2023 18:29:22.310,-0.449,-0.918,-0.066
4/26/2023 18:29:22.320,-0.203,-0.961,0.004
4/26/2023 18:29:22.330,-0.039,-0.973,0.027
4/26/2023 18:29:22.340,-0.027,-0.949,0.008
4/26/2023 18:29:22.350,-0.121,-0.813,-0.031
4/26/2023 18:29:22.360,-0.23,-0.59,-0.039
4/26/2023 18:29:22.370,-0.402,-0.344,-0.066
4/26/2023 18:29:22.380,-0.445,-0.219,-0.098
4/26/2023 18:29:22.390,-0.527,-0.172,-0.129
4/26/2023 18:29:22.400,-0.535,-0.16,-0.113
4/26/2023 18:29:22.410,-0.559,-0.059,-0.066
4/26/2023 18:29:22.420,-0.625,-0.055,-0.051
4/26/2023 18:29:22.430,-0.719,-0.102,-0.055
4/26/2023 18:29:22.440,-0.867,-0.07,-0.059
4/26/2023 18:29:22.450,-0.992,-0.086,-0.055
4/26/2023 18:29:22.460,-1.105,-0.137,-0.063
4/26/2023 18:29:22.470,-1.242,-0.141,-0.066
4/26/2023 18:29:22.480,-1.418,-0.07,-0.051
4/26/2023 18:29:22.490,-1.648,-0.105,-0.016
4/26/2023 18:29:22.500,-1.953,-0.168,-0.008
4/26/2023 18:29:22.510,-2.324,-0.098,-0.059
4/26/2023 18:29:22.520,-2.688,0.141,-0.16
4/26/2023 18:29:22.530,-2.938,0.434,-0.332
4/26/2023 18:29:22.540,-3.09,0.613,-0.539
4/26/2023 18:29:22.550,-2.977,0.773,-0.785
4/26/2023 18:29:22.560,-2.32,1.301,-0.879
4/26/2023 18:29:22.570,-1.988,2.059,-1.023
4/26/2023 18:29:22.580,-1.531,2.977,-0.754
4/26/2023 18:29:22.590,-1.277,3.492,-0.547
4/26/2023 18:29:22.600,-1.508,3.109,-0.43
4/26/2023 18:29:22.610,-1.348,2.512,-0.43
4/26/2023 18:29:22.620,-1.309,2.102,-0.422
4/26/2023 18:29:22.630,-1.586,1.563,-0.301
4/26/2023 18:29:22.640,-2.594,-0.176,-0.863
4/26/2023 18:29:22.650,-1.215,-2.059,-0.266
4/26/2023 18:29:22.660,-0.676,-2.375,1.094
4/26/2023 18:29:22.670,-1.637,0.25,1.152
4/26/2023 18:29:22.680,-1.895,1.605,0.527
4/26/2023 18:29:22.690,-1.637,1.371,0.438
4/26/2023 18:29:22.700,-1.465,1.203,0.16
4/26/2023 18:29:22.710,-1.125,0.945,-0.219
4/26/2023 18:29:22.720,-1.016,0.375,-0.547
4/26/2023 18:29:22.730,-0.98,0.188,-0.688
4/26/2023 18:29:22.740,-1.102,0.645,-0.906
4/26/2023 18:29:22.750,-1.27,0.758,-0.738
4/26/2023 18:29:22.760,-1.238,0.727,-0.234
4/26/2023 18:29:22.770,-1.094,0.816,-0.137
4/26/2023 18:29:22.780,-0.957,0.477,-0.27
4/26/2023 18:29:22.790,-0.977,0.313,-0.246
4/26/2023 18:29:22.800,-1.012,0.301,-0.16
4/26/2023 18:29:22.810,-1.047,-0.02,-0.098
4/26/2023 18:29:22.820,-1.078,0.172,-0.148
4/26/2023 18:29:22.830,-1.055,0.141,-0.289
4/26/2023 18:29:22.840,-1.066,-0.035,-0.313
4/26/2023 18:29:22.850,-1.074,0.051,-0.297
4/26/2023 18:29:22.860,-1.074,0.09,-0.23
4/26/2023 18:29:22.870,-1.059,0.07,-0.234
4/26/2023 18:29:22.880,-1.074,0.031,-0.199
4/26/2023 18:29:22.890,-1.047,0.047,-0.254
4/26/2023 18:29:22.900,-1.031,0.039,-0.301
4/26/2023 18:29:22.910,-1.027,0.027,-0.313
4/26/2023 18:29:22.920,-0.996,0.059,-0.25
4/26/2023 18:29:22.930,-1.012,0.008,-0.207
4/26/2023 18:29:22.940,-1.016,-0.035,-0.168
4/26/2023 18:29:22.950,-1.016,-0.047,-0.152
4/26/2023 18:29:22.960,-0.957,-0.016,-0.137
4/26/2023 18:29:22.970,-0.945,0.031,-0.137
4/26/2023 18:29:22.980,-0.93,0.039,-0.164
4/26/2023 18:29:22.990,-0.918,-0.035,-0.164
4/26/2023 18:29:23.000,-0.918,-0.09,-0.152
4/26/2023 18:29:23.010,-0.914,-0.121,-0.109
4/26/2023 18:29:23.020,-0.934,-0.121,-0.094
4/26/2023 18:29:23.030,-0.996,-0.141,-0.074
4/26/2023 18:29:23.040,-1.059,-0.199,-0.063
4/26/2023 18:29:23.050,-1.066,-0.156,-0.07
4/26/2023 18:29:23.060,-1.098,-0.105,-0.078
4/26/2023 18:29:23.070,-1.164,-0.09,-0.102
4/26/2023 18:29:23.080,-1.234,-0.094,-0.098
4/26/2023 18:29:23.090,-1.27,-0.125,-0.066
4/26/2023 18:29:23.100,-1.313,-0.137,-0.016
4/26/2023 18:29:23.110,-1.332,-0.145,0.059
4/26/2023 18:29:23.120,-1.371,-0.145,0.105
4/26/2023 18:29:23.130,-1.453,-0.16,0.008
4/26/2023 18:29:23.140,-1.539,-0.211,-0.121
4/26/2023 18:29:23.150,-1.648,-0.262,-0.203
4/26/2023 18:29:23.160,-1.758,-0.402,-0.191
4/26/2023 18:29:23.170,-1.836,-0.469,-0.109
4/26/2023 18:29:23.180,-1.996,-0.625,-0.016
4/26/2023 18:29:23.190,-2.148,-0.926,-0.098
4/26/2023 18:29:23.200,-2.121,-1.23,-0.18
4/26/2023 18:29:23.210,-2.195,-1.137,-0.227
4/26/2023 18:29:23.220,-2.281,-1.09,-0.055
4/26/2023 18:29:23.230,-2.59,-0.793,-0.129
4/26/2023 18:29:23.240,-2.434,-0.055,-0.453
4/26/2023 18:29:23.250,-2.387,0.449,-0.871
4/26/2023 18:29:23.260,-2.48,-0.012,-0.734
4/26/2023 18:29:23.270,-2.188,-0.617,-0.746
4/26/2023 18:29:23.280,-1.762,-0.59,-0.828
4/26/2023 18:29:23.290,-1.32,-0.301,-0.656
4/26/2023 18:29:23.300,-1.043,-0.285,-0.48
4/26/2023 18:29:23.310,-0.566,-0.063,-0.543
4/26/2023 18:29:23.320,-0.438,-0.344,-0.48
4/26/2023 18:29:23.330,-0.504,-0.781,-0.207
4/26/2023 18:29:23.340,-0.355,-0.934,-0.086
4/26/2023 18:29:23.350,-0.156,-0.961,0.004
4/26/2023 18:29:23.360,-0.078,-0.988,0.031
4/26/2023 18:29:23.370,-0.125,-0.918,0.023
4/26/2023 18:29:23.380,-0.219,-0.738,0.02
4/26/2023 18:29:23.390,-0.391,-0.508,-0.035
4/26/2023 18:29:23.400,-0.371,-0.395,-0.055
4/26/2023 18:29:23.410,-0.418,-0.289,-0.121
4/26/2023 18:29:23.420,-0.453,-0.227,-0.152
4/26/2023 18:29:23.430,-0.508,-0.195,-0.141
4/26/2023 18:29:23.440,-0.559,-0.184,-0.102
4/26/2023 18:29:23.450,-0.641,-0.141,-0.082
4/26/2023 18:29:23.460,-0.754,-0.059,-0.059
4/26/2023 18:29:23.470,-0.891,-0.074,-0.063
4/26/2023 18:29:23.480,-1.035,-0.148,-0.07
4/26/2023 18:29:23.490,-1.191,-0.141,-0.078
4/26/2023 18:29:23.500,-1.375,-0.145,-0.07
4/26/2023 18:29:23.510,-1.605,-0.168,-0.047
4/26/2023 18:29:23.520,-1.902,-0.129,-0.051
4/26/2023 18:29:23.530,-2.219,0.063,-0.078
4/26/2023 18:29:23.540,-2.523,0.32,-0.121
4/26/2023 18:29:23.550,-2.797,0.605,-0.234
4/26/2023 18:29:23.560,-3.039,0.828,-0.52
4/26/2023 18:29:23.570,-2.996,0.836,-0.758
4/26/2023 18:29:23.580,-2.465,1.059,-0.637
4/26/2023 18:29:23.590,-1.945,1.57,-0.863
4/26/2023 18:29:23.600,-1.766,2.316,-0.949
4/26/2023 18:29:23.610,-1.367,2.992,-0.617
4/26/2023 18:29:23.620,-1.32,3.184,-0.297
4/26/2023 18:29:23.630,-1.465,2.621,-0.164
4/26/2023 18:29:23.640,-1.23,2.086,-0.281
4/26/2023 18:29:23.650,-1.16,1.984,-0.395
4/26/2023 18:29:23.660,-2.07,1.688,-0.395
4/26/2023 18:29:23.670,-2.336,-0.273,-0.523
4/26/2023 18:29:23.680,-1.184,-2.07,-0.25
4/26/2023 18:29:23.690,-0.988,-2.129,1.047
4/26/2023 18:29:23.700,-1.48,0.695,1.066
4/26/2023 18:29:23.710,-1.531,1.363,0.535
4/26/2023 18:29:23.720,-1.313,0.984,0.238
4/26/2023 18:29:23.730,-1.125,0.699,0.039
4/26/2023 18:29:23.740,-0.898,0.969,-0.449
4/26/2023 18:29:23.750,-1.234,0.613,-0.895
4/26/2023 18:29:23.760,-1.645,0.52,-1.023
4/26/2023 18:29:23.770,-1.418,0.805,-0.727
4/26/2023 18:29:23.780,-1.113,0.777,-0.145
4/26/2023 18:29:23.790,-1.059,0.676,-0.07
4/26/2023 18:29:23.800,-0.961,0.535,-0.281
4/26/2023 18:29:23.810,-0.84,0.188,-0.211
4/26/2023 18:29:23.820,-0.996,0.465,-0.164
4/26/2023 18:29:23.830,-1.102,0.266,-0.191
4/26/2023 18:29:23.840,-1.074,0.039,-0.156
4/26/2023 18:29:23.850,-1.078,0.176,-0.234
4/26/2023 18:29:23.860,-1.07,0.012,-0.328
4/26/2023 18:29:23.870,-1.086,-0.016,-0.332
4/26/2023 18:29:23.880,-1.078,0.023,-0.285
4/26/2023 18:29:23.890,-1.047,0.039,-0.266
4/26/2023 18:29:23.900,-1.043,0.023,-0.191
4/26/2023 18:29:23.910,-1.035,0.039,-0.262
4/26/2023 18:29:23.920,-1.023,0,-0.305
4/26/2023 18:29:23.930,-1.008,0.008,-0.309
4/26/2023 18:29:23.940,-1,-0.004,-0.211
4/26/2023 18:29:23.950,-1.059,-0.004,-0.16
4/26/2023 18:29:23.960,-1.07,-0.027,-0.133
4/26/2023 18:29:23.970,-1.004,-0.102,-0.098
4/26/2023 18:29:23.980,-0.93,-0.074,-0.078
4/26/2023 18:29:23.990,-0.949,-0.027,-0.129
4/26/2023 18:29:24.000,-0.914,-0.055,-0.16
4/26/2023 18:29:24.010,-0.902,-0.098,-0.16
4/26/2023 18:29:24.020,-0.945,-0.066,-0.145
4/26/2023 18:29:24.030,-0.992,-0.125,-0.125
4/26/2023 18:29:24.040,-1.008,-0.125,-0.137
4/26/2023 18:29:24.050,-1.023,-0.148,-0.141
4/26/2023 18:29:24.060,-1.066,-0.172,-0.137
4/26/2023 18:29:24.070,-1.102,-0.129,-0.094
4/26/2023 18:29:24.080,-1.141,-0.102,-0.055
4/26/2023 18:29:24.090,-1.199,-0.082,-0.031
4/26/2023 18:29:24.100,-1.293,-0.125,-0.043
4/26/2023 18:29:24.110,-1.336,-0.129,-0.043
4/26/2023 18:29:24.120,-1.359,-0.125,0.02
4/26/2023 18:29:24.130,-1.352,-0.113,0.074
4/26/2023 18:29:24.140,-1.406,-0.133,0.047
4/26/2023 18:29:24.150,-1.516,-0.191,-0.051
4/26/2023 18:29:24.160,-1.629,-0.289,-0.152
4/26/2023 18:29:24.170,-1.746,-0.418,-0.172
4/26/2023 18:29:24.180,-1.84,-0.527,-0.105
4/26/2023 18:29:24.190,-2.008,-0.688,-0.082
4/26/2023 18:29:24.200,-2.109,-0.973,-0.152
4/26/2023 18:29:24.210,-2.129,-1.141,-0.172
4/26/2023 18:29:24.220,-2.148,-1.137,-0.199
4/26/2023 18:29:24.230,-2.523,-1.086,-0.074
4/26/2023 18:29:24.240,-2.68,-0.707,-0.207
4/26/2023 18:29:24.250,-2.465,0.105,-0.586
4/26/2023 18:29:24.260,-2.488,0.465,-0.91
4/26/2023 18:29:24.270,-2.492,-0.164,-0.734
4/26/2023 18:29:24.280,-2.105,-0.652,-0.699
4/26/2023 18:29:24.290,-1.621,-0.488,-0.754
4/26/2023 18:29:24.300,-1.313,-0.293,-0.656
4/26/2023 18:29:24.310,-1.008,-0.266,-0.465
4/26/2023 18:29:24.320,-0.41,-0.188,-0.574
4/26/2023 18:29:24.330,-0.477,-0.641,-0.332
4/26/2023 18:29:24.340,-0.516,-0.938,-0.059
4/26/2023 18:29:24.350,-0.297,-1.027,0
4/26/2023 18:29:24.360,-0.117,-1.023,0.063
4/26/2023 18:29:24.370,-0.078,-1.012,0.078
4/26/2023 18:29:24.380,-0.141,-0.891,0.059
4/26/2023 18:29:24.390,-0.281,-0.668,0.063
4/26/2023 18:29:24.400,-0.418,-0.398,0.004
4/26/2023 18:29:24.410,-0.492,-0.285,-0.047
4/26/2023 18:29:24.420,-0.508,-0.223,-0.074
4/26/2023 18:29:24.430,-0.551,-0.16,-0.07
4/26/2023 18:29:24.440,-0.59,-0.117,-0.027
4/26/2023 18:29:24.450,-0.664,-0.145,-0.012
4/26/2023 18:29:24.460,-0.777,-0.078,0.004
4/26/2023 18:29:24.470,-0.91,-0.109,-0.012
4/26/2023 18:29:24.480,-1.035,-0.074,-0.016
4/26/2023 18:29:24.490,-1.164,-0.148,-0.02
4/26/2023 18:29:24.500,-1.309,-0.152,-0.016
4/26/2023 18:29:24.510,-1.496,-0.184,0.02
4/26/2023 18:29:24.520,-1.77,-0.23,0.059
4/26/2023 18:29:24.530,-2.109,-0.18,0.016
4/26/2023 18:29:24.540,-2.434,0.043,-0.063
4/26/2023 18:29:24.550,-2.695,0.371,-0.18
4/26/2023 18:29:24.560,-2.918,0.633,-0.457
4/26/2023 18:29:24.570,-2.98,0.813,-0.75
4/26/2023 18:29:24.580,-2.777,0.996,-1.023
4/26/2023 18:29:24.590,-2.172,1.508,-1.105
4/26/2023 18:29:24.600,-1.852,2.316,-1.031
4/26/2023 18:29:24.610,-1.395,3.105,-0.75
4/26/2023 18:29:24.620,-1.27,3.43,-0.578
4/26/2023 18:29:24.630,-1.512,3.055,-0.422
4/26/2023 18:29:24.640,-1.219,2.426,-0.43
4/26/2023 18:29:24.650,-1.172,2.09,-0.43
4/26/2023 18:29:24.660,-1.566,1.715,-0.281
4/26/2023 18:29:24.670,-2.527,-0.398,-0.766
4/26/2023 18:29:24.680,-1.418,-2.582,-0.219
4/26/2023 18:29:24.690,-0.801,-2.355,1.086
4/26/2023 18:29:24.700,-1.574,0.594,1.098
4/26/2023 18:29:24.710,-1.793,1.391,0.516
4/26/2023 18:29:24.720,-1.414,1.188,0.301
4/26/2023 18:29:24.730,-1.156,0.945,0.113
4/26/2023 18:29:24.740,-0.957,1.129,-0.277
4/26/2023 18:29:24.750,-1.027,0.754,-0.684
4/26/2023 18:29:24.760,-1.398,0.324,-1.227
4/26/2023 18:29:24.770,-1.484,0.746,-1.082
4/26/2023 18:29:24.780,-1.395,0.961,-0.355
4/26/2023 18:29:24.790,-1.172,0.77,0.102
4/26/2023 18:29:24.800,-0.949,0.676,-0.137
4/26/2023 18:29:24.810,-0.949,0.449,-0.285
4/26/2023 18:29:24.820,-0.793,0.359,-0.219
4/26/2023 18:29:24.830,-0.98,0.27,-0.141
4/26/2023 18:29:24.840,-1.063,0.078,-0.113
4/26/2023 18:29:24.850,-1.125,-0.031,-0.18
4/26/2023 18:29:24.860,-1.07,-0.164,-0.289
4/26/2023 18:29:24.870,-1.039,-0.082,-0.313
4/26/2023 18:29:24.880,-1.055,0.145,-0.313
4/26/2023 18:29:24.890,-1.063,0.055,-0.172
4/26/2023 18:29:24.900,-1.063,0.063,-0.23
4/26/2023 18:29:24.910,-1.055,-0.008,-0.254
4/26/2023 18:29:24.920,-1.023,-0.004,-0.355
4/26/2023 18:29:24.930,-0.965,0.074,-0.332
4/26/2023 18:29:24.940,-0.98,0.066,-0.238
4/26/2023 18:29:24.950,-1.016,-0.02,-0.145
4/26/2023 18:29:24.960,-1.016,-0.113,-0.094
4/26/2023 18:29:24.970,-1.043,-0.098,-0.102
4/26/2023 18:29:24.980,-0.996,-0.109,-0.102
4/26/2023 18:29:24.990,-0.98,-0.066,-0.113
4/26/2023 18:29:25.000,-0.957,-0.039,-0.16
4/26/2023 18:29:25.010,-0.957,-0.059,-0.176
4/26/2023 18:29:25.020,-0.961,-0.066,-0.211
4/26/2023 18:29:25.030,-0.922,-0.063,-0.223
4/26/2023 18:29:25.040,-0.918,-0.086,-0.195
4/26/2023 18:29:25.050,-0.953,-0.141,-0.164
4/26/2023 18:29:25.060,-1.004,-0.184,-0.148
4/26/2023 18:29:25.070,-1.031,-0.129,-0.129
4/26/2023 18:29:25.080,-1.082,-0.082,-0.109
4/26/2023 18:29:25.090,-1.156,-0.043,-0.086
4/26/2023 18:29:25.100,-1.246,-0.09,-0.074
4/26/2023 18:29:25.110,-1.309,-0.102,-0.051
4/26/2023 18:29:25.120,-1.348,-0.117,-0.004
4/26/2023 18:29:25.130,-1.363,-0.168,0.078
4/26/2023 18:29:25.140,-1.402,-0.203,0.102
4/26/2023 18:29:25.150,-1.516,-0.238,0.012
4/26/2023 18:29:25.160,-1.641,-0.309,-0.086
4/26/2023 18:29:25.170,-1.762,-0.391,-0.133
4/26/2023 18:29:25.180,-1.867,-0.539,-0.09
4/26/2023 18:29:25.190,-2.039,-0.668,-0.004
4/26/2023 18:29:25.200,-2.227,-0.938,-0.02
4/26/2023 18:29:25.210,-2.246,-1.125,-0.086
4/26/2023 18:29:25.220,-2.188,-1.262,-0.152
4/26/2023 18:29:25.230,-2.488,-1.246,-0.047
4/26/2023 18:29:25.240,-2.758,-0.785,-0.121
4/26/2023 18:29:25.250,-2.453,0.039,-0.418
4/26/2023 18:29:25.260,-2.398,0.473,-0.938
4/26/2023 18:29:25.270,-2.547,0.023,-0.918
4/26/2023 18:29:25.280,-2.262,-0.68,-0.711
4/26/2023 18:29:25.290,-1.773,-0.688,-0.73
4/26/2023 18:29:25.300,-1.379,-0.301,-0.73
4/26/2023 18:29:25.310,-1.07,-0.195,-0.563
4/26/2023 18:29:25.320,-0.469,-0.074,-0.66
4/26/2023 18:29:25.330,-0.332,-0.449,-0.527
4/26/2023 18:29:25.340,-0.395,-0.805,-0.199
4/26/2023 18:29:25.350,-0.234,-0.914,-0.051
4/26/2023 18:29:25.360,-0.035,-0.977,0.047
4/26/2023 18:29:25.370,0.023,-1.012,0.09
4/26/2023 18:29:25.380,-0.066,-0.945,0.09
4/26/2023 18:29:25.390,-0.188,-0.773,0.063
4/26/2023 18:29:25.400,-0.445,-0.469,0.008
4/26/2023 18:29:25.410,-0.422,-0.375,-0.035
4/26/2023 18:29:25.420,-0.441,-0.309,-0.059
4/26/2023 18:29:25.430,-0.527,-0.273,-0.063
4/26/2023 18:29:25.440,-0.582,-0.246,-0.031
4/26/2023 18:29:25.450,-0.648,-0.203,-0.02
4/26/2023 18:29:25.460,-0.754,-0.105,-0.02
4/26/2023 18:29:25.470,-0.883,-0.105,-0.031
4/26/2023 18:29:25.480,-1.02,-0.148,-0.043
4/26/2023 18:29:25.490,-1.164,-0.172,-0.051
4/26/2023 18:29:25.500,-1.328,-0.145,-0.063
4/26/2023 18:29:25.510,-1.5,-0.152,-0.051
4/26/2023 18:29:25.520,-1.723,-0.16,-0.035
4/26/2023 18:29:25.530,-2.016,-0.105,-0.059
4/26/2023 18:29:25.540,-2.285,0.063,-0.117
4/26/2023 18:29:25.550,-2.555,0.348,-0.227
4/26/2023 18:29:25.560,-2.789,0.598,-0.441
4/26/2023 18:29:25.570,-2.887,0.863,-0.746
4/26/2023 18:29:25.580,-2.809,1.004,-1.027
4/26/2023 18:29:25.590,-2.359,1.367,-1.133
4/26/2023 18:29:25.600,-1.957,2.055,-1.098
4/26/2023 18:29:25.610,-1.539,2.82,-0.82
4/26/2023 18:29:25.620,-1.273,3.367,-0.602
4/26/2023 18:29:25.630,-1.523,3.223,-0.453
4/26/2023 18:29:25.640,-1.332,2.523,-0.414
4/26/2023 18:29:25.650,-1.156,2.172,-0.426
4/26/2023 18:29:25.660,-1.281,1.879,-0.184
4/26/2023 18:29:25.670,-2.625,-0.184,-0.785
4/26/2023 18:29:25.680,-1.379,-2.344,-0.051
4/26/2023 18:29:25.690,-0.719,-2.605,1.164
4/26/2023 18:29:25.700,-1.48,0.219,1.023
4/26/2023 18:29:25.710,-1.906,1.551,0.188
4/26/2023 18:29:25.720,-1.586,1.148,0.195
4/26/2023 18:29:25.730,-1.406,1.105,0.164
4/26/2023 18:29:25.740,-1.098,1.047,-0.121
4/26/2023 18:29:25.750,-0.984,0.539,-0.43
4/26/2023 18:29:25.760,-1.035,0.195,-0.742
4/26/2023 18:29:25.770,-1.387,0.656,-1.121
4/26/2023 18:29:25.780,-1.371,0.781,-0.902
4/26/2023 18:29:25.790,-1.23,0.551,-0.141
4/26/2023 18:29:25.800,-0.914,0.699,-0.039
4/26/2023 18:29:25.810,-0.93,0.488,-0.258
4/26/2023 18:29:25.820,-0.977,0.371,-0.27
4/26/2023 18:29:25.830,-1.02,0.309,-0.141
4/26/2023 18:29:25.840,-1.047,0.109,-0.113
4/26/2023 18:29:25.850,-1.055,-0.066,-0.164
4/26/2023 18:29:25.860,-1.055,0.02,-0.246
4/26/2023 18:29:25.870,-1.055,-0.027,-0.313
4/26/2023 18:29:25.880,-1.086,-0.004,-0.266
4/26/2023 18:29:25.890,-1.094,0.07,-0.207
4/26/2023 18:29:25.900,-1.051,0.078,-0.203
4/26/2023 18:29:25.910,-1.066,0.043,-0.176
4/26/2023 18:29:25.920,-1.008,0.102,-0.199
4/26/2023 18:29:25.930,-1.02,0.07,-0.258
4/26/2023 18:29:25.940,-1.016,0.047,-0.266
4/26/2023 18:29:25.950,-0.984,0.086,-0.254
4/26/2023 18:29:25.960,-1.004,-0.031,-0.199
4/26/2023 18:29:25.970,-0.992,-0.039,-0.156
4/26/2023 18:29:25.980,-0.969,-0.051,-0.137
4/26/2023 18:29:25.990,-0.973,-0.055,-0.141
4/26/2023 18:29:26.000,-0.973,-0.082,-0.137
4/26/2023 18:29:26.010,-0.945,-0.047,-0.141
4/26/2023 18:29:26.020,-0.938,-0.047,-0.164
4/26/2023 18:29:26.030,-0.945,-0.086,-0.156
4/26/2023 18:29:26.040,-0.957,-0.188,-0.117
4/26/2023 18:29:26.050,-0.984,-0.195,-0.117
4/26/2023 18:29:26.060,-1,-0.215,-0.121
4/26/2023 18:29:26.070,-1.012,-0.184,-0.125
4/26/2023 18:29:26.080,-1.055,-0.242,-0.109
4/26/2023 18:29:26.090,-1.105,-0.234,-0.133
4/26/2023 18:29:26.100,-1.184,-0.168,-0.145
4/26/2023 18:29:26.110,-1.27,-0.102,-0.09
4/26/2023 18:29:26.120,-1.313,-0.109,0
4/26/2023 18:29:26.130,-1.316,-0.113,0.094
4/26/2023 18:29:26.140,-1.348,-0.137,0.141
4/26/2023 18:29:26.150,-1.422,-0.164,0.109
4/26/2023 18:29:26.160,-1.516,-0.195,-0.031
4/26/2023 18:29:26.170,-1.602,-0.23,-0.145
4/26/2023 18:29:26.180,-1.68,-0.301,-0.18
4/26/2023 18:29:26.190,-1.773,-0.449,-0.117
4/26/2023 18:29:26.200,-1.934,-0.566,-0.012
4/26/2023 18:29:26.210,-2.172,-0.777,-0.066
4/26/2023 18:29:26.220,-2.098,-1.086,-0.18
4/26/2023 18:29:26.230,-2.121,-1.23,-0.215
4/26/2023 18:29:26.240,-2.309,-1.121,-0.199
4/26/2023 18:29:26.250,-2.66,-1.059,-0.102
4/26/2023 18:29:26.260,-2.52,-0.387,-0.293
4/26/2023 18:29:26.270,-2.32,0.438,-0.707
4/26/2023 18:29:26.280,-2.488,0.301,-0.816
4/26/2023 18:29:26.290,-2.363,-0.457,-0.711
4/26/2023 18:29:26.300,-1.855,-0.551,-0.813
4/26/2023 18:29:26.310,-1.402,-0.211,-0.813
4/26/2023 18:29:26.320,-1.188,-0.289,-0.637
4/26/2023 18:29:26.330,-0.637,-0.176,-0.535
4/26/2023 18:29:26.340,-0.379,-0.27,-0.555
4/26/2023 18:29:26.350,-0.555,-0.691,-0.195
4/26/2023 18:29:26.360,-0.387,-0.918,-0.051
4/26/2023 18:29:26.370,-0.152,-0.965,-0.004
4/26/2023 18:29:26.380,-0.035,-1.012,0.008
4/26/2023 18:29:26.390,-0.059,-0.957,-0.016
4/26/2023 18:29:26.400,-0.141,-0.805,-0.039
4/26/2023 18:29:26.410,-0.301,-0.578,-0.004
4/26/2023 18:29:26.420,-0.438,-0.352,-0.043
4/26/2023 18:29:26.430,-0.414,-0.273,-0.035
4/26/2023 18:29:26.440,-0.461,-0.191,-0.055
4/26/2023 18:29:26.450,-0.5,-0.168,-0.039
4/26/2023 18:29:26.460,-0.566,-0.172,-0.016
4/26/2023 18:29:26.470,-0.633,-0.133,0.004
4/26/2023 18:29:26.480,-0.734,-0.113,-0.004
4/26/2023 18:29:26.490,-0.875,-0.125,-0.039
4/26/2023 18:29:26.500,-1.016,-0.105,-0.055
4/26/2023 18:29:26.510,-1.16,-0.105,-0.063
4/26/2023 18:29:26.520,-1.301,-0.082,-0.074
4/26/2023 18:29:26.530,-1.457,-0.086,-0.055
4/26/2023 18:29:26.540,-1.684,-0.125,-0.012
4/26/2023 18:29:26.550,-1.965,-0.09,0.004
4/26/2023 18:29:26.560,-2.324,0.066,-0.078
4/26/2023 18:29:26.570,-2.684,0.328,-0.184
4/26/2023 18:29:26.580,-2.926,0.586,-0.406
4/26/2023 18:29:26.590,-3.031,0.707,-0.66
4/26/2023 18:29:26.600,-2.809,0.848,-0.977
4/26/2023 18:29:26.610,-2.207,1.457,-1.125
4/26/2023 18:29:26.620,-1.867,2.27,-1.004
4/26/2023 18:29:26.630,-1.391,3.059,-0.723
4/26/2023 18:29:26.640,-1.266,3.34,-0.531
4/26/2023 18:29:26.650,-1.566,2.898,-0.43
4/26/2023 18:29:26.660,-1.328,2.152,-0.387
4/26/2023 18:29:26.670,-1.211,1.949,-0.348
4/26/2023 18:29:26.680,-1.398,1.711,-0.141
4/26/2023 18:29:26.690,-2.73,-0.262,-0.676
4/26/2023 18:29:26.700,-1.387,-2.27,-0.008
4/26/2023 18:29:26.710,-0.641,-2.484,1.063
4/26/2023 18:29:26.720,-1.398,-0.148,1.156
4/26/2023 18:29:26.730,-1.801,1.172,0.563
4/26/2023 18:29:26.740,-1.492,1.176,0.215
4/26/2023 18:29:26.750,-1.18,1.074,0.016
4/26/2023 18:29:26.760,-0.984,1.316,-0.402
4/26/2023 18:29:26.770,-1.285,0.777,-0.707
4/26/2023 18:29:26.780,-1.184,0.121,-0.914
4/26/2023 18:29:26.790,-1.246,0.645,-0.801
4/26/2023 18:29:26.800,-1.34,0.859,-0.449
4/26/2023 18:29:26.810,-1.164,0.844,-0.02
4/26/2023 18:29:26.820,-1.051,0.844,-0.168
4/26/2023 18:29:26.830,-0.949,0.535,-0.316
4/26/2023 18:29:26.840,-0.977,0.301,-0.266
4/26/2023 18:29:26.850,-0.984,0.129,-0.148
4/26/2023 18:29:26.860,-1.043,-0.008,-0.133
4/26/2023 18:29:26.870,-1.066,-0.055,-0.184
4/26/2023 18:29:26.880,-1.078,0.043,-0.23
4/26/2023 18:29:26.890,-1.098,-0.035,-0.336
4/26/2023 18:29:26.900,-1.09,0.027,-0.348
4/26/2023 18:29:26.910,-1.051,0.051,-0.25
4/26/2023 18:29:26.920,-1.047,0.078,-0.242
4/26/2023 18:29:26.930,-1.031,0.055,-0.219
4/26/2023 18:29:26.940,-1.035,0.039,-0.234
4/26/2023 18:29:26.950,-1.012,0.047,-0.293
4/26/2023 18:29:26.960,-0.992,0.043,-0.285
4/26/2023 18:29:26.970,-1.023,0.012,-0.242
4/26/2023 18:29:26.980,-1,0.012,-0.164
4/26/2023 18:29:26.990,-0.969,-0.043,-0.094
4/26/2023 18:29:27.000,-1.004,-0.059,-0.094
4/26/2023 18:29:27.010,-1.004,-0.039,-0.105
4/26/2023 18:29:27.020,-0.984,-0.016,-0.137
4/26/2023 18:29:27.030,-0.977,-0.043,-0.164
4/26/2023 18:29:27.040,-0.934,-0.027,-0.172
4/26/2023 18:29:27.050,-0.922,-0.047,-0.156
4/26/2023 18:29:27.060,-0.93,-0.02,-0.117
4/26/2023 18:29:27.070,-0.988,-0.074,-0.113
4/26/2023 18:29:27.080,-1.023,-0.141,-0.121
4/26/2023 18:29:27.090,-1.035,-0.109,-0.125
4/26/2023 18:29:27.100,-1.078,-0.078,-0.121
4/26/2023 18:29:27.110,-1.133,-0.066,-0.117
4/26/2023 18:29:27.120,-1.219,-0.082,-0.105
4/26/2023 18:29:27.130,-1.273,-0.098,-0.086
4/26/2023 18:29:27.140,-1.301,-0.094,-0.047
4/26/2023 18:29:27.150,-1.324,-0.133,0.016
4/26/2023 18:29:27.160,-1.344,-0.145,0.063
4/26/2023 18:29:27.170,-1.434,-0.18,-0.004
4/26/2023 18:29:27.180,-1.543,-0.246,-0.094
4/26/2023 18:29:27.190,-1.645,-0.285,-0.145
4/26/2023 18:29:27.200,-1.758,-0.398,-0.109
4/26/2023 18:29:27.210,-1.941,-0.484,-0.047
4/26/2023 18:29:27.220,-2.109,-0.684,-0.074
4/26/2023 18:29:27.230,-2.07,-0.938,-0.172
4/26/2023 18:29:27.240,-2.207,-1.215,-0.172
4/26/2023 18:29:27.250,-2.543,-1.203,-0.098
4/26/2023 18:29:27.260,-2.531,-1.113,0.02
4/26/2023 18:29:27.270,-2.66,-0.652,-0.203
4/26/2023 18:29:27.280,-2.508,0.086,-0.66
4/26/2023 18:29:27.290,-2.566,0.348,-0.965
4/26/2023 18:29:27.300,-2.586,-0.34,-0.789
4/26/2023 18:29:27.310,-2.141,-0.785,-0.777
4/26/2023 18:29:27.320,-1.621,-0.523,-0.727
4/26/2023 18:29:27.330,-1.18,-0.336,-0.559
4/26/2023 18:29:27.340,-0.852,-0.199,-0.422
4/26/2023 18:29:27.350,-0.344,-0.137,-0.578
4/26/2023 18:29:27.360,-0.414,-0.531,-0.266
4/26/2023 18:29:27.370,-0.367,-0.859,-0.016
4/26/2023 18:29:27.380,-0.148,-0.988,0.051
4/26/2023 18:29:27.390,-0.02,-1.098,0.125
4/26/2023 18:29:27.400,-0.055,-1.09,0.098
4/26/2023 18:29:27.410,-0.211,-0.906,0.094
4/26/2023 18:29:27.420,-0.449,-0.582,0.031
4/26/2023 18:29:27.430,-0.395,-0.457,0.047
4/26/2023 18:29:27.440,-0.426,-0.355,0.02
4/26/2023 18:29:27.450,-0.492,-0.309,0.004
4/26/2023 18:29:27.460,-0.555,-0.281,0.012
4/26/2023 18:29:27.470,-0.633,-0.23,0.02
4/26/2023 18:29:27.480,-0.723,-0.102,0.016
4/26/2023 18:29:27.490,-0.832,-0.082,0.012
4/26/2023 18:29:27.500,-0.973,-0.098,0.008
4/26/2023 18:29:27.510,-1.121,-0.16,-0.008
4/26/2023 18:29:27.520,-1.258,-0.129,-0.012
4/26/2023 18:29:27.530,-1.402,-0.07,-0.02
4/26/2023 18:29:27.540,-1.586,-0.098,0.016
4/26/2023 18:29:27.550,-1.852,-0.133,0.047
4/26/2023 18:29:27.560,-2.195,-0.102,-0.004
4/26/2023 18:29:27.570,-2.605,0.074,-0.102
4/26/2023 18:29:27.580,-2.906,0.367,-0.238
4/26/2023 18:29:27.590,-3.121,0.629,-0.457
4/26/2023 18:29:27.600,-3.094,0.813,-0.699
4/26/2023 18:29:27.610,-2.473,1.078,-0.875
4/26/2023 18:29:27.620,-2.008,1.723,-1.016
4/26/2023 18:29:27.630,-1.625,2.652,-0.844
4/26/2023 18:29:27.640,-1.191,3.344,-0.582
4/26/2023 18:29:27.650,-1.461,3.23,-0.473
4/26/2023 18:29:27.660,-1.52,2.598,-0.473
4/26/2023 18:29:27.670,-1.32,2.273,-0.445
4/26/2023 18:29:27.680,-1.23,1.965,-0.391
4/26/2023 18:29:27.690,-2.586,0.613,-0.82
4/26/2023 18:29:27.700,-2.051,-1.504,-0.691
4/26/2023 18:29:27.710,-0.801,-2.738,0.605
4/26/2023 18:29:27.720,-1.195,-0.762,1.293
4/26/2023 18:29:27.730,-2.027,1.527,0.758
