------------ Data File Created By ActiGraph GT3X+ ActiLife v6.13.4 Firmware v1.7.2 date format M/d/yyyy at 100 Hz  Filter Normal -----------
Serial Number: TAS1H34200054
Start Time 18:29:00
Start Date 4/26/2023
Epoch Period (hh:mm:ss) 00:00:00
Download Time 18:44:32
Download Date 4/26/2023
Current Memory Address: 0
Current Battery Voltage: 4.12     Mode = 12
--------------------------------------------------
Timestamp,Accelerometer X,Accelerometer Y,Accelerometer Z
4/26/2023 18:29:00.000,-0.453,-0.809,-0.469
4/26/2023 18:29:00.010,-0.434,-0.797,-0.469
4/26/2023 18:29:00.020,-0.418,-0.789,-0.473
4/26/2023 18:29:00.030,-0.387,-0.75,-0.449
4/26/2023 18:29:00.040,-0.316,-0.668,-0.418
4/26/2023 18:29:00.050,-0.25,-0.602,-0.402
4/26/2023 18:29:00.060,-0.191,-0.563,-0.398
4/26/2023 18:29:00.070,-0.117,-0.539,-0.383
4/26/2023 18:29:00.080,-0.059,-0.531,-0.359
4/26/2023 18:29:00.090,-0.012,-0.527,-0.332
4/26/2023 18:29:00.100,0,-0.527,-0.309
4/26/2023 18:29:00.110,0.008,-0.527,-0.285
4/26/2023 18:29:00.120,0.004,-0.531,-0.277
4/26/2023 18:29:00.130,-0.027,-0.531,-0.277
4/26/2023 18:29:00.140,-0.078,-0.527,-0.281
4/26/2023 18:29:00.150,-0.125,-0.512,-0.297
4/26/2023 18:29:00.160,-0.16,-0.52,-0.324
4/26/2023 18:29:00.170,-0.199,-0.551,-0.363
4/26/2023 18:29:00.180,-0.223,-0.586,-0.418
4/26/2023 18:29:00.190,-0.227,-0.66,-0.441
4/26/2023 18:29:00.200,-0.234,-0.754,-0.441
4/26/2023 18:29:00.210,-0.254,-0.871,-0.387
4/26/2023 18:29:00.220,-0.254,-0.969,-0.336
4/26/2023 18:29:00.230,-0.219,-1.039,-0.305
4/26/2023 18:29:00.240,-0.184,-1.113,-0.266
4/26/2023 18:29:00.250,-0.195,-1.219,-0.242
4/26/2023 18:29:00.260,-0.203,-1.281,-0.266
4/26/2023 18:29:00.270,-0.172,-1.273,-0.316
4/26/2023 18:29:00.280,-0.043,-1.211,-0.359
4/26/2023 18:29:00.290,0.133,-1.18,-0.336
4/26/2023 18:29:00.300,0.23,-1.195,-0.289
4/26/2023 18:29:00.310,0.227,-1.262,-0.262
4/26/2023 18:29:00.320,0.125,-1.344,-0.215
4/26/2023 18:29:00.330,-0.094,-1.328,-0.422
4/26/2023 18:29:00.340,-0.305,-1.383,-0.703
4/26/2023 18:29:00.350,-0.379,-1.469,-0.723
4/26/2023 18:29:00.360,-0.344,-1.293,-0.664
4/26/2023 18:29:00.370,-0.301,-1.059,-0.727
4/26/2023 18:29:00.380,-0.34,-1.039,-0.73
4/26/2023 18:29:00.390,-0.434,-1.047,-0.648
4/26/2023 18:29:00.400,-0.566,-0.898,-0.605
4/26/2023 18:29:00.410,-0.75,-0.773,-0.594
4/26/2023 18:29:00.420,-0.816,-0.824,-0.598
4/26/2023 18:29:00.430,-0.781,-1.004,-0.633
4/26/2023 18:29:00.440,-0.688,-1.191,-0.68
4/26/2023 18:29:00.450,-0.582,-1.324,-0.734
4/26/2023 18:29:00.460,-0.461,-1.355,-0.758
4/26/2023 18:29:00.470,-0.418,-1.363,-0.734
4/26/2023 18:29:00.480,-0.418,-1.352,-0.691
4/26/2023 18:29:00.490,-0.395,-1.273,-0.703
4/26/2023 18:29:00.500,-0.367,-1.199,-0.684
4/26/2023 18:29:00.510,-0.305,-1.098,-0.598
4/26/2023 18:29:00.520,-0.25,-0.945,-0.5
4/26/2023 18:29:00.530,-0.223,-0.805,-0.402
4/26/2023 18:29:00.540,-0.203,-0.73,-0.324
4/26/2023 18:29:00.550,-0.211,-0.676,-0.262
4/26/2023 18:29:00.560,-0.234,-0.574,-0.227
4/26/2023 18:29:00.570,-0.262,-0.461,-0.207
4/26/2023 18:29:00.580,-0.285,-0.387,-0.195
4/26/2023 18:29:00.590,-0.309,-0.355,-0.188
4/26/2023 18:29:00.600,-0.316,-0.352,-0.188
4/26/2023 18:29:00.610,-0.293,-0.359,-0.184
4/26/2023 18:29:00.620,-0.27,-0.375,-0.18
4/26/2023 18:29:00.630,-0.242,-0.395,-0.18
4/26/2023 18:29:00.640,-0.211,-0.418,-0.168
4/26/2023 18:29:00.650,-0.188,-0.438,-0.152
4/26/2023 18:29:00.660,-0.172,-0.453,-0.133
4/26/2023 18:29:00.670,-0.168,-0.477,-0.113
4/26/2023 18:29:00.680,-0.172,-0.516,-0.113
4/26/2023 18:29:00.690,-0.172,-0.566,-0.133
4/26/2023 18:29:00.700,-0.164,-0.629,-0.148
4/26/2023 18:29:00.710,-0.148,-0.691,-0.164
4/26/2023 18:29:00.720,-0.129,-0.77,-0.184
4/26/2023 18:29:00.730,-0.137,-0.879,-0.258
4/26/2023 18:29:00.740,-0.137,-0.961,-0.359
4/26/2023 18:29:00.750,-0.16,-0.949,-0.48
4/26/2023 18:29:00.760,-0.172,-0.863,-0.547
4/26/2023 18:29:00.770,-0.293,-0.852,-0.527
4/26/2023 18:29:00.780,-0.488,-1.086,-0.48
4/26/2023 18:29:00.790,-0.563,-1.469,-0.473
4/26/2023 18:29:00.800,-0.488,-1.668,-0.484
4/26/2023 18:29:00.810,-0.359,-1.75,-0.422
4/26/2023 18:29:00.820,-0.227,-1.723,-0.441
4/26/2023 18:29:00.830,-0.207,-1.578,-0.699
4/26/2023 18:29:00.840,-0.188,-1.461,-0.742
4/26/2023 18:29:00.850,-0.137,-1.375,-0.59
4/26/2023 18:29:00.860,-0.23,-1.25,-0.578
4/26/2023 18:29:00.870,-0.422,-1.129,-0.664
4/26/2023 18:29:00.880,-0.664,-1.043,-0.672
4/26/2023 18:29:00.890,-0.793,-0.988,-0.598
4/26/2023 18:29:00.900,-0.793,-0.895,-0.617
4/26/2023 18:29:00.910,-0.688,-0.844,-0.668
4/26/2023 18:29:00.920,-0.559,-0.836,-0.707
4/26/2023 18:29:00.930,-0.434,-0.785,-0.719
4/26/2023 18:29:00.940,-0.359,-0.813,-0.691
4/26/2023 18:29:00.950,-0.348,-0.859,-0.684
4/26/2023 18:29:00.960,-0.348,-0.844,-0.707
4/26/2023 18:29:00.970,-0.359,-0.84,-0.719
4/26/2023 18:29:00.980,-0.41,-0.836,-0.727
4/26/2023 18:29:00.990,-0.445,-0.879,-0.695
4/26/2023 18:29:01.000,-0.469,-0.922,-0.621
4/26/2023 18:29:01.010,-0.465,-0.918,-0.551
4/26/2023 18:29:01.020,-0.477,-0.887,-0.531
4/26/2023 18:29:01.030,-0.48,-0.855,-0.523
4/26/2023 18:29:01.040,-0.469,-0.824,-0.516
4/26/2023 18:29:01.050,-0.406,-0.785,-0.492
4/26/2023 18:29:01.060,-0.336,-0.723,-0.457
4/26/2023 18:29:01.070,-0.27,-0.641,-0.43
4/26/2023 18:29:01.080,-0.203,-0.582,-0.41
4/26/2023 18:29:01.090,-0.164,-0.539,-0.398
4/26/2023 18:29:01.100,-0.098,-0.52,-0.363
4/26/2023 18:29:01.110,-0.047,-0.512,-0.332
4/26/2023 18:29:01.120,-0.039,-0.52,-0.316
4/26/2023 18:29:01.130,-0.043,-0.547,-0.309
4/26/2023 18:29:01.140,-0.035,-0.582,-0.301
4/26/2023 18:29:01.150,-0.043,-0.59,-0.285
4/26/2023 18:29:01.160,-0.063,-0.57,-0.277
4/26/2023 18:29:01.170,-0.074,-0.543,-0.273
4/26/2023 18:29:01.180,-0.094,-0.527,-0.262
4/26/2023 18:29:01.190,-0.125,-0.527,-0.27
4/26/2023 18:29:01.200,-0.141,-0.543,-0.289
4/26/2023 18:29:01.210,-0.137,-0.574,-0.313
4/26/2023 18:29:01.220,-0.137,-0.652,-0.277
4/26/2023 18:29:01.230,-0.156,-0.754,-0.238
4/26/2023 18:29:01.240,-0.172,-0.84,-0.227
4/26/2023 18:29:01.250,-0.168,-0.91,-0.238
4/26/2023 18:29:01.260,-0.195,-1.02,-0.254
4/26/2023 18:29:01.270,-0.23,-1.137,-0.266
4/26/2023 18:29:01.280,-0.27,-1.227,-0.289
4/26/2023 18:29:01.290,-0.246,-1.242,-0.359
4/26/2023 18:29:01.300,-0.117,-1.219,-0.391
4/26/2023 18:29:01.310,0.047,-1.27,-0.355
4/26/2023 18:29:01.320,0.152,-1.328,-0.316
4/26/2023 18:29:01.330,0.188,-1.406,-0.27
4/26/2023 18:29:01.340,0.098,-1.469,-0.234
4/26/2023 18:29:01.350,-0.094,-1.414,-0.426
4/26/2023 18:29:01.360,-0.277,-1.426,-0.688
4/26/2023 18:29:01.370,-0.313,-1.488,-0.73
4/26/2023 18:29:01.380,-0.309,-1.34,-0.691
4/26/2023 18:29:01.390,-0.34,-1.121,-0.77
4/26/2023 18:29:01.400,-0.398,-1.09,-0.77
4/26/2023 18:29:01.410,-0.473,-1.09,-0.664
4/26/2023 18:29:01.420,-0.594,-0.906,-0.59
4/26/2023 18:29:01.430,-0.75,-0.711,-0.559
4/26/2023 18:29:01.440,-0.805,-0.734,-0.512
4/26/2023 18:29:01.450,-0.742,-0.879,-0.539
4/26/2023 18:29:01.460,-0.633,-1.039,-0.617
4/26/2023 18:29:01.470,-0.547,-1.203,-0.684
4/26/2023 18:29:01.480,-0.453,-1.316,-0.727
4/26/2023 18:29:01.490,-0.414,-1.379,-0.754
4/26/2023 18:29:01.500,-0.418,-1.348,-0.781
4/26/2023 18:29:01.510,-0.406,-1.273,-0.785
4/26/2023 18:29:01.520,-0.355,-1.227,-0.719
4/26/2023 18:29:01.530,-0.309,-1.176,-0.645
4/26/2023 18:29:01.540,-0.281,-1.066,-0.559
4/26/2023 18:29:01.550,-0.27,-0.906,-0.434
4/26/2023 18:29:01.560,-0.27,-0.734,-0.324
4/26/2023 18:29:01.570,-0.254,-0.609,-0.23
4/26/2023 18:29:01.580,-0.246,-0.543,-0.184
4/26/2023 18:29:01.590,-0.254,-0.492,-0.164
4/26/2023 18:29:01.600,-0.258,-0.441,-0.156
4/26/2023 18:29:01.610,-0.246,-0.387,-0.148
4/26/2023 18:29:01.620,-0.238,-0.363,-0.148
4/26/2023 18:29:01.630,-0.219,-0.348,-0.141
4/26/2023 18:29:01.640,-0.207,-0.352,-0.141
4/26/2023 18:29:01.650,-0.176,-0.371,-0.137
4/26/2023 18:29:01.660,-0.152,-0.387,-0.129
4/26/2023 18:29:01.670,-0.148,-0.414,-0.117
4/26/2023 18:29:01.680,-0.145,-0.441,-0.102
4/26/2023 18:29:01.690,-0.152,-0.477,-0.105
4/26/2023 18:29:01.700,-0.168,-0.539,-0.098
4/26/2023 18:29:01.710,-0.172,-0.59,-0.098
4/26/2023 18:29:01.720,-0.156,-0.625,-0.109
4/26/2023 18:29:01.730,-0.125,-0.688,-0.129
4/26/2023 18:29:01.740,-0.121,-0.793,-0.195
4/26/2023 18:29:01.750,-0.121,-0.906,-0.309
4/26/2023 18:29:01.760,-0.098,-0.949,-0.43
4/26/2023 18:29:01.770,-0.141,-0.902,-0.531
4/26/2023 18:29:01.780,-0.234,-0.895,-0.523
4/26/2023 18:29:01.790,-0.352,-1.078,-0.477
4/26/2023 18:29:01.800,-0.438,-1.422,-0.5
4/26/2023 18:29:01.810,-0.469,-1.691,-0.574
4/26/2023 18:29:01.820,-0.469,-1.828,-0.723
4/26/2023 18:29:01.830,-0.609,-1.855,-1.082
4/26/2023 18:29:01.840,-0.621,-1.762,-0.961
4/26/2023 18:29:01.850,-0.383,-1.52,-0.719
4/26/2023 18:29:01.860,-0.367,-1.23,-0.766
4/26/2023 18:29:01.870,-0.391,-1.105,-0.738
4/26/2023 18:29:01.880,-0.461,-1.129,-0.539
4/26/2023 18:29:01.890,-0.551,-1.172,-0.398
4/26/2023 18:29:01.900,-0.621,-0.973,-0.469
4/26/2023 18:29:01.910,-0.547,-0.727,-0.57
4/26/2023 18:29:01.920,-0.461,-0.688,-0.613
4/26/2023 18:29:01.930,-0.41,-0.777,-0.625
4/26/2023 18:29:01.940,-0.398,-0.809,-0.734
4/26/2023 18:29:01.950,-0.379,-0.844,-0.867
4/26/2023 18:29:01.960,-0.363,-0.914,-0.938
4/26/2023 18:29:01.970,-0.375,-0.945,-0.898
4/26/2023 18:29:01.980,-0.43,-0.902,-0.809
4/26/2023 18:29:01.990,-0.449,-0.91,-0.691
4/26/2023 18:29:02.000,-0.43,-0.922,-0.566
4/26/2023 18:29:02.010,-0.391,-0.875,-0.453
4/26/2023 18:29:02.020,-0.391,-0.785,-0.387
4/26/2023 18:29:02.030,-0.414,-0.715,-0.383
4/26/2023 18:29:02.040,-0.41,-0.68,-0.402
4/26/2023 18:29:02.050,-0.379,-0.684,-0.414
4/26/2023 18:29:02.060,-0.301,-0.652,-0.426
4/26/2023 18:29:02.070,-0.227,-0.598,-0.434
4/26/2023 18:29:02.080,-0.145,-0.547,-0.43
4/26/2023 18:29:02.090,-0.074,-0.535,-0.418
4/26/2023 18:29:02.100,-0.02,-0.535,-0.375
4/26/2023 18:29:02.110,0.023,-0.527,-0.336
4/26/2023 18:29:02.120,0.031,-0.52,-0.316
4/26/2023 18:29:02.130,0.016,-0.52,-0.309
4/26/2023 18:29:02.140,-0.035,-0.527,-0.32
4/26/2023 18:29:02.150,-0.082,-0.535,-0.32
4/26/2023 18:29:02.160,-0.125,-0.531,-0.32
4/26/2023 18:29:02.170,-0.156,-0.523,-0.32
4/26/2023 18:29:02.180,-0.188,-0.543,-0.336
4/26/2023 18:29:02.190,-0.176,-0.578,-0.359
4/26/2023 18:29:02.200,-0.145,-0.621,-0.375
4/26/2023 18:29:02.210,-0.121,-0.688,-0.363
4/26/2023 18:29:02.220,-0.117,-0.785,-0.313
4/26/2023 18:29:02.230,-0.121,-0.871,-0.277
4/26/2023 18:29:02.240,-0.117,-0.941,-0.27
4/26/2023 18:29:02.250,-0.133,-1.004,-0.266
4/26/2023 18:29:02.260,-0.207,-1.09,-0.262
4/26/2023 18:29:02.270,-0.281,-1.156,-0.281
4/26/2023 18:29:02.280,-0.301,-1.176,-0.328
4/26/2023 18:29:02.290,-0.207,-1.145,-0.391
4/26/2023 18:29:02.300,-0.066,-1.18,-0.41
4/26/2023 18:29:02.310,0.016,-1.281,-0.398
4/26/2023 18:29:02.320,0.07,-1.375,-0.371
4/26/2023 18:29:02.330,0.031,-1.43,-0.328
4/26/2023 18:29:02.340,-0.059,-1.41,-0.449
4/26/2023 18:29:02.350,-0.176,-1.414,-0.586
4/26/2023 18:29:02.360,-0.293,-1.48,-0.59
4/26/2023 18:29:02.370,-0.25,-1.348,-0.613
4/26/2023 18:29:02.380,-0.207,-1.145,-0.758
4/26/2023 18:29:02.390,-0.25,-1.133,-0.773
4/26/2023 18:29:02.400,-0.336,-1.117,-0.703
4/26/2023 18:29:02.410,-0.473,-0.988,-0.637
4/26/2023 18:29:02.420,-0.703,-0.828,-0.652
4/26/2023 18:29:02.430,-0.832,-0.766,-0.734
4/26/2023 18:29:02.440,-0.809,-0.938,-0.695
4/26/2023 18:29:02.450,-0.723,-1.129,-0.668
4/26/2023 18:29:02.460,-0.609,-1.219,-0.711
4/26/2023 18:29:02.470,-0.523,-1.254,-0.762
4/26/2023 18:29:02.480,-0.469,-1.281,-0.75
4/26/2023 18:29:02.490,-0.414,-1.305,-0.723
4/26/2023 18:29:02.500,-0.414,-1.242,-0.781
4/26/2023 18:29:02.510,-0.32,-1.172,-0.645
4/26/2023 18:29:02.520,-0.258,-1.086,-0.613
4/26/2023 18:29:02.530,-0.219,-0.961,-0.555
4/26/2023 18:29:02.540,-0.172,-0.809,-0.438
4/26/2023 18:29:02.550,-0.172,-0.684,-0.336
4/26/2023 18:29:02.560,-0.172,-0.594,-0.242
4/26/2023 18:29:02.570,-0.191,-0.504,-0.184
4/26/2023 18:29:02.580,-0.227,-0.422,-0.141
4/26/2023 18:29:02.590,-0.254,-0.359,-0.109
4/26/2023 18:29:02.600,-0.293,-0.32,-0.098
4/26/2023 18:29:02.610,-0.301,-0.305,-0.094
4/26/2023 18:29:02.620,-0.293,-0.309,-0.098
4/26/2023 18:29:02.630,-0.281,-0.316,-0.117
4/26/2023 18:29:02.640,-0.238,-0.328,-0.117
4/26/2023 18:29:02.650,-0.203,-0.355,-0.117
4/26/2023 18:29:02.660,-0.176,-0.383,-0.129
4/26/2023 18:29:02.670,-0.152,-0.406,-0.137
4/26/2023 18:29:02.680,-0.145,-0.465,-0.152
4/26/2023 18:29:02.690,-0.16,-0.555,-0.164
4/26/2023 18:29:02.700,-0.176,-0.637,-0.156
4/26/2023 18:29:02.710,-0.184,-0.68,-0.18
4/26/2023 18:29:02.720,-0.18,-0.727,-0.223
4/26/2023 18:29:02.730,-0.203,-0.832,-0.25
4/26/2023 18:29:02.740,-0.227,-0.965,-0.297
4/26/2023 18:29:02.750,-0.191,-1.051,-0.387
4/26/2023 18:29:02.760,-0.117,-1.031,-0.5
4/26/2023 18:29:02.770,-0.172,-0.992,-0.59
4/26/2023 18:29:02.780,-0.285,-1.098,-0.566
4/26/2023 18:29:02.790,-0.457,-1.395,-0.559
4/26/2023 18:29:02.800,-0.582,-1.602,-0.672
4/26/2023 18:29:02.810,-0.707,-1.629,-0.922
4/26/2023 18:29:02.820,-0.859,-1.684,-1.105
4/26/2023 18:29:02.830,-0.664,-1.723,-0.797
4/26/2023 18:29:02.840,-0.336,-1.555,-0.621
4/26/2023 18:29:02.850,-0.32,-1.195,-0.836
4/26/2023 18:29:02.860,-0.266,-1.055,-0.797
4/26/2023 18:29:02.870,-0.352,-1.168,-0.57
4/26/2023 18:29:02.880,-0.512,-1.199,-0.457
4/26/2023 18:29:02.890,-0.555,-1.008,-0.473
4/26/2023 18:29:02.900,-0.496,-0.793,-0.488
4/26/2023 18:29:02.910,-0.48,-0.629,-0.543
4/26/2023 18:29:02.920,-0.488,-0.633,-0.586
4/26/2023 18:29:02.930,-0.488,-0.691,-0.676
4/26/2023 18:29:02.940,-0.461,-0.789,-0.805
4/26/2023 18:29:02.950,-0.43,-0.91,-0.914
4/26/2023 18:29:02.960,-0.402,-0.98,-0.977
4/26/2023 18:29:02.970,-0.398,-0.984,-0.949
4/26/2023 18:29:02.980,-0.418,-0.957,-0.844
4/26/2023 18:29:02.990,-0.375,-0.93,-0.688
4/26/2023 18:29:03.000,-0.332,-0.895,-0.523
4/26/2023 18:29:03.010,-0.336,-0.836,-0.422
4/26/2023 18:29:03.020,-0.371,-0.758,-0.414
4/26/2023 18:29:03.030,-0.383,-0.707,-0.445
4/26/2023 18:29:03.040,-0.348,-0.695,-0.465
4/26/2023 18:29:03.050,-0.293,-0.691,-0.445
4/26/2023 18:29:03.060,-0.254,-0.66,-0.434
4/26/2023 18:29:03.070,-0.215,-0.617,-0.434
4/26/2023 18:29:03.080,-0.176,-0.574,-0.434
4/26/2023 18:29:03.090,-0.129,-0.539,-0.426
4/26/2023 18:29:03.100,-0.082,-0.516,-0.383
4/26/2023 18:29:03.110,-0.059,-0.504,-0.344
4/26/2023 18:29:03.120,-0.066,-0.504,-0.316
4/26/2023 18:29:03.130,-0.078,-0.52,-0.32
4/26/2023 18:29:03.140,-0.098,-0.563,-0.313
4/26/2023 18:29:03.150,-0.105,-0.578,-0.293
4/26/2023 18:29:03.160,-0.121,-0.559,-0.273
4/26/2023 18:29:03.170,-0.145,-0.539,-0.258
4/26/2023 18:29:03.180,-0.168,-0.52,-0.242
4/26/2023 18:29:03.190,-0.18,-0.512,-0.25
4/26/2023 18:29:03.200,-0.191,-0.52,-0.27
4/26/2023 18:29:03.210,-0.176,-0.555,-0.305
4/26/2023 18:29:03.220,-0.141,-0.637,-0.348
4/26/2023 18:29:03.230,-0.105,-0.754,-0.371
4/26/2023 18:29:03.240,-0.105,-0.855,-0.355
4/26/2023 18:29:03.250,-0.117,-0.914,-0.332
4/26/2023 18:29:03.260,-0.137,-0.953,-0.313
4/26/2023 18:29:03.270,-0.184,-1.031,-0.285
4/26/2023 18:29:03.280,-0.277,-1.133,-0.297
4/26/2023 18:29:03.290,-0.336,-1.195,-0.344
4/26/2023 18:29:03.300,-0.344,-1.211,-0.395
4/26/2023 18:29:03.310,-0.25,-1.168,-0.438
4/26/2023 18:29:03.320,-0.113,-1.176,-0.418
4/26/2023 18:29:03.330,0.027,-1.234,-0.34
4/26/2023 18:29:03.340,0.102,-1.293,-0.273
4/26/2023 18:29:03.350,0.055,-1.352,-0.203
4/26/2023 18:29:03.360,-0.117,-1.32,-0.348
4/26/2023 18:29:03.370,-0.277,-1.313,-0.641
4/26/2023 18:29:03.380,-0.309,-1.445,-0.715
4/26/2023 18:29:03.390,-0.262,-1.371,-0.676
4/26/2023 18:29:03.400,-0.254,-1.137,-0.734
4/26/2023 18:29:03.410,-0.301,-1.047,-0.762
4/26/2023 18:29:03.420,-0.406,-1.074,-0.668
4/26/2023 18:29:03.430,-0.563,-0.977,-0.559
4/26/2023 18:29:03.440,-0.691,-0.758,-0.496
4/26/2023 18:29:03.450,-0.738,-0.664,-0.453
4/26/2023 18:29:03.460,-0.754,-0.75,-0.484
4/26/2023 18:29:03.470,-0.707,-0.898,-0.57
4/26/2023 18:29:03.480,-0.598,-1.086,-0.629
4/26/2023 18:29:03.490,-0.512,-1.227,-0.684
4/26/2023 18:29:03.500,-0.426,-1.281,-0.719
4/26/2023 18:29:03.510,-0.367,-1.328,-0.719
4/26/2023 18:29:03.520,-0.375,-1.375,-0.715
4/26/2023 18:29:03.530,-0.391,-1.367,-0.715
4/26/2023 18:29:03.540,-0.355,-1.281,-0.664
4/26/2023 18:29:03.550,-0.309,-1.156,-0.57
4/26/2023 18:29:03.560,-0.27,-1.023,-0.457
4/26/2023 18:29:03.570,-0.242,-0.895,-0.355
4/26/2023 18:29:03.580,-0.246,-0.75,-0.293
4/26/2023 18:29:03.590,-0.227,-0.625,-0.234
4/26/2023 18:29:03.600,-0.211,-0.531,-0.215
4/26/2023 18:29:03.610,-0.207,-0.473,-0.199
4/26/2023 18:29:03.620,-0.215,-0.449,-0.199
4/26/2023 18:29:03.630,-0.215,-0.43,-0.188
4/26/2023 18:29:03.640,-0.215,-0.418,-0.188
4/26/2023 18:29:03.650,-0.203,-0.418,-0.195
4/26/2023 18:29:03.660,-0.203,-0.43,-0.199
4/26/2023 18:29:03.670,-0.195,-0.445,-0.188
4/26/2023 18:29:03.680,-0.168,-0.457,-0.168
4/26/2023 18:29:03.690,-0.156,-0.473,-0.145
4/26/2023 18:29:03.700,-0.148,-0.477,-0.121
4/26/2023 18:29:03.710,-0.148,-0.488,-0.098
4/26/2023 18:29:03.720,-0.164,-0.504,-0.102
4/26/2023 18:29:03.730,-0.18,-0.543,-0.102
4/26/2023 18:29:03.740,-0.168,-0.57,-0.113
4/26/2023 18:29:03.750,-0.152,-0.621,-0.133
4/26/2023 18:29:03.760,-0.121,-0.691,-0.156
4/26/2023 18:29:03.770,-0.129,-0.766,-0.258
4/26/2023 18:29:03.780,-0.129,-0.855,-0.395
4/26/2023 18:29:03.790,-0.129,-0.895,-0.512
4/26/2023 18:29:03.800,-0.207,-0.906,-0.594
4/26/2023 18:29:03.810,-0.336,-0.996,-0.574
4/26/2023 18:29:03.820,-0.5,-1.313,-0.543
4/26/2023 18:29:03.830,-0.582,-1.652,-0.543
4/26/2023 18:29:03.840,-0.563,-1.852,-0.508
4/26/2023 18:29:03.850,-0.449,-1.926,-0.371
4/26/2023 18:29:03.860,-0.328,-1.773,-0.402
4/26/2023 18:29:03.870,-0.234,-1.379,-0.691
4/26/2023 18:29:03.880,-0.074,-1.082,-0.602
4/26/2023 18:29:03.890,-0.117,-0.977,-0.496
4/26/2023 18:29:03.900,-0.348,-1,-0.57
4/26/2023 18:29:03.910,-0.625,-0.941,-0.75
4/26/2023 18:29:03.920,-0.773,-0.945,-0.789
4/26/2023 18:29:03.930,-0.762,-0.977,-0.73
4/26/2023 18:29:03.940,-0.676,-1.016,-0.676
4/26/2023 18:29:03.950,-0.578,-0.98,-0.719
4/26/2023 18:29:03.960,-0.43,-0.82,-0.801
4/26/2023 18:29:03.970,-0.344,-0.871,-0.734
4/26/2023 18:29:03.980,-0.375,-0.977,-0.668
4/26/2023 18:29:03.990,-0.387,-0.949,-0.656
4/26/2023 18:29:04.000,-0.414,-0.926,-0.641
4/26/2023 18:29:04.010,-0.488,-0.914,-0.676
4/26/2023 18:29:04.020,-0.523,-0.93,-0.707
4/26/2023 18:29:04.030,-0.512,-0.98,-0.68
4/26/2023 18:29:04.040,-0.492,-1.012,-0.633
4/26/2023 18:29:04.050,-0.477,-1.004,-0.598
4/26/2023 18:29:04.060,-0.457,-0.965,-0.582
4/26/2023 18:29:04.070,-0.402,-0.887,-0.563
4/26/2023 18:29:04.080,-0.332,-0.805,-0.516
4/26/2023 18:29:04.090,-0.254,-0.73,-0.469
4/26/2023 18:29:04.100,-0.191,-0.664,-0.41
4/26/2023 18:29:04.110,-0.152,-0.598,-0.391
4/26/2023 18:29:04.120,-0.117,-0.539,-0.363
4/26/2023 18:29:04.130,-0.082,-0.484,-0.336
4/26/2023 18:29:04.140,-0.055,-0.453,-0.324
4/26/2023 18:29:04.150,-0.047,-0.465,-0.301
4/26/2023 18:29:04.160,-0.055,-0.496,-0.297
4/26/2023 18:29:04.170,-0.063,-0.516,-0.289
4/26/2023 18:29:04.180,-0.094,-0.523,-0.277
4/26/2023 18:29:04.190,-0.117,-0.512,-0.27
4/26/2023 18:29:04.200,-0.145,-0.52,-0.258
4/26/2023 18:29:04.210,-0.152,-0.527,-0.258
4/26/2023 18:29:04.220,-0.152,-0.539,-0.277
4/26/2023 18:29:04.230,-0.16,-0.563,-0.301
4/26/2023 18:29:04.240,-0.172,-0.609,-0.309
4/26/2023 18:29:04.250,-0.191,-0.672,-0.273
4/26/2023 18:29:04.260,-0.219,-0.715,-0.242
4/26/2023 18:29:04.270,-0.211,-0.738,-0.242
4/26/2023 18:29:04.280,-0.207,-0.824,-0.238
4/26/2023 18:29:04.290,-0.227,-0.965,-0.242
4/26/2023 18:29:04.300,-0.25,-1.102,-0.281
4/26/2023 18:29:04.310,-0.27,-1.18,-0.355
4/26/2023 18:29:04.320,-0.23,-1.203,-0.441
4/26/2023 18:29:04.330,-0.109,-1.238,-0.461
4/26/2023 18:29:04.340,0.008,-1.316,-0.43
4/26/2023 18:29:04.350,0.086,-1.391,-0.379
4/26/2023 18:29:04.360,0.125,-1.453,-0.301
4/26/2023 18:29:04.370,0.059,-1.5,-0.195
4/26/2023 18:29:04.380,-0.102,-1.43,-0.23
4/26/2023 18:29:04.390,-0.207,-1.348,-0.504
4/26/2023 18:29:04.400,-0.148,-1.414,-0.609
4/26/2023 18:29:04.410,-0.109,-1.379,-0.57
4/26/2023 18:29:04.420,-0.086,-1.125,-0.609
4/26/2023 18:29:04.430,-0.141,-0.973,-0.691
4/26/2023 18:29:04.440,-0.293,-1.016,-0.668
4/26/2023 18:29:04.450,-0.492,-0.992,-0.57
4/26/2023 18:29:04.460,-0.68,-0.836,-0.578
4/26/2023 18:29:04.470,-0.797,-0.781,-0.609
4/26/2023 18:29:04.480,-0.836,-0.93,-0.66
4/26/2023 18:29:04.490,-0.742,-1.152,-0.703
4/26/2023 18:29:04.500,-0.656,-1.328,-0.754
4/26/2023 18:29:04.510,-0.543,-1.406,-0.77
4/26/2023 18:29:04.520,-0.461,-1.461,-0.742
4/26/2023 18:29:04.530,-0.426,-1.469,-0.711
4/26/2023 18:29:04.540,-0.387,-1.371,-0.707
4/26/2023 18:29:04.550,-0.344,-1.238,-0.703
4/26/2023 18:29:04.560,-0.305,-1.113,-0.641
4/26/2023 18:29:04.570,-0.234,-0.992,-0.512
4/26/2023 18:29:04.580,-0.191,-0.891,-0.379
4/26/2023 18:29:04.590,-0.199,-0.781,-0.297
4/26/2023 18:29:04.600,-0.199,-0.68,-0.219
4/26/2023 18:29:04.610,-0.211,-0.586,-0.184
4/26/2023 18:29:04.620,-0.234,-0.492,-0.176
4/26/2023 18:29:04.630,-0.25,-0.426,-0.156
4/26/2023 18:29:04.640,-0.262,-0.375,-0.152
4/26/2023 18:29:04.650,-0.25,-0.34,-0.148
4/26/2023 18:29:04.660,-0.234,-0.328,-0.145
4/26/2023 18:29:04.670,-0.234,-0.336,-0.148
4/26/2023 18:29:04.680,-0.211,-0.355,-0.145
4/26/2023 18:29:04.690,-0.191,-0.387,-0.137
4/26/2023 18:29:04.700,-0.176,-0.414,-0.129
4/26/2023 18:29:04.710,-0.16,-0.438,-0.105
4/26/2023 18:29:04.720,-0.152,-0.469,-0.094
4/26/2023 18:29:04.730,-0.156,-0.512,-0.078
4/26/2023 18:29:04.740,-0.156,-0.57,-0.063
4/26/2023 18:29:04.750,-0.152,-0.629,-0.059
4/26/2023 18:29:04.760,-0.141,-0.688,-0.063
4/26/2023 18:29:04.770,-0.113,-0.77,-0.066
4/26/2023 18:29:04.780,-0.098,-0.883,-0.137
4/26/2023 18:29:04.790,-0.066,-1.012,-0.227
4/26/2023 18:29:04.800,-0.023,-1.098,-0.355
4/26/2023 18:29:04.810,-0.07,-1.027,-0.539
4/26/2023 18:29:04.820,-0.172,-0.934,-0.57
4/26/2023 18:29:04.830,-0.395,-1.027,-0.488
4/26/2023 18:29:04.840,-0.551,-1.359,-0.422
4/26/2023 18:29:04.850,-0.598,-1.664,-0.582
4/26/2023 18:29:04.860,-0.781,-1.789,-1.078
4/26/2023 18:29:04.870,-0.984,-1.848,-1.156
4/26/2023 18:29:04.880,-0.617,-1.746,-0.715
4/26/2023 18:29:04.890,-0.297,-1.371,-0.676
4/26/2023 18:29:04.900,-0.242,-1.078,-0.742
4/26/2023 18:29:04.910,-0.281,-1.039,-0.57
4/26/2023 18:29:04.920,-0.461,-1.125,-0.422
4/26/2023 18:29:04.930,-0.605,-1.113,-0.457
4/26/2023 18:29:04.940,-0.48,-1.008,-0.5
4/26/2023 18:29:04.950,-0.367,-0.793,-0.605
4/26/2023 18:29:04.960,-0.391,-0.695,-0.711
4/26/2023 18:29:04.970,-0.441,-0.785,-0.789
4/26/2023 18:29:04.980,-0.461,-0.922,-0.871
4/26/2023 18:29:04.990,-0.465,-0.953,-0.969
4/26/2023 18:29:05.000,-0.488,-0.973,-0.996
4/26/2023 18:29:05.010,-0.531,-1.02,-0.887
4/26/2023 18:29:05.020,-0.574,-0.988,-0.77
4/26/2023 18:29:05.030,-0.543,-0.98,-0.645
4/26/2023 18:29:05.040,-0.469,-0.969,-0.527
4/26/2023 18:29:05.050,-0.414,-0.898,-0.441
4/26/2023 18:29:05.060,-0.414,-0.805,-0.414
4/26/2023 18:29:05.070,-0.41,-0.754,-0.43
4/26/2023 18:29:05.080,-0.367,-0.754,-0.441
4/26/2023 18:29:05.090,-0.281,-0.75,-0.434
4/26/2023 18:29:05.100,-0.191,-0.703,-0.43
4/26/2023 18:29:05.110,-0.121,-0.629,-0.426
4/26/2023 18:29:05.120,-0.082,-0.586,-0.41
4/26/2023 18:29:05.130,-0.027,-0.563,-0.371
4/26/2023 18:29:05.140,0.016,-0.523,-0.316
4/26/2023 18:29:05.150,0.02,-0.48,-0.285
4/26/2023 18:29:05.160,0.004,-0.453,-0.27
4/26/2023 18:29:05.170,-0.008,-0.453,-0.262
4/26/2023 18:29:05.180,-0.039,-0.469,-0.258
4/26/2023 18:29:05.190,-0.074,-0.484,-0.246
4/26/2023 18:29:05.200,-0.109,-0.492,-0.242
4/26/2023 18:29:05.210,-0.148,-0.488,-0.254
4/26/2023 18:29:05.220,-0.156,-0.492,-0.273
4/26/2023 18:29:05.230,-0.129,-0.527,-0.293
4/26/2023 18:29:05.240,-0.105,-0.574,-0.332
4/26/2023 18:29:05.250,-0.074,-0.641,-0.352
4/26/2023 18:29:05.260,-0.074,-0.746,-0.32
4/26/2023 18:29:05.270,-0.098,-0.852,-0.277
4/26/2023 18:29:05.280,-0.117,-0.918,-0.25
4/26/2023 18:29:05.290,-0.121,-0.961,-0.238
4/26/2023 18:29:05.300,-0.184,-1.047,-0.227
4/26/2023 18:29:05.310,-0.27,-1.145,-0.223
4/26/2023 18:29:05.320,-0.332,-1.223,-0.262
4/26/2023 18:29:05.330,-0.324,-1.223,-0.352
4/26/2023 18:29:05.340,-0.215,-1.215,-0.398
4/26/2023 18:29:05.350,-0.102,-1.285,-0.391
4/26/2023 18:29:05.360,-0.004,-1.379,-0.383
4/26/2023 18:29:05.370,0.086,-1.449,-0.336
4/26/2023 18:29:05.380,0.023,-1.473,-0.277
4/26/2023 18:29:05.390,-0.184,-1.379,-0.473
4/26/2023 18:29:05.400,-0.391,-1.422,-0.719
4/26/2023 18:29:05.410,-0.395,-1.496,-0.699
4/26/2023 18:29:05.420,-0.316,-1.266,-0.672
4/26/2023 18:29:05.430,-0.289,-0.996,-0.715
4/26/2023 18:29:05.440,-0.34,-0.969,-0.656
4/26/2023 18:29:05.450,-0.41,-0.945,-0.539
4/26/2023 18:29:05.460,-0.5,-0.762,-0.465
4/26/2023 18:29:05.470,-0.625,-0.66,-0.453
4/26/2023 18:29:05.480,-0.664,-0.781,-0.48
4/26/2023 18:29:05.490,-0.629,-0.992,-0.59
4/26/2023 18:29:05.500,-0.543,-1.188,-0.691
4/26/2023 18:29:05.510,-0.449,-1.352,-0.746
4/26/2023 18:29:05.520,-0.344,-1.422,-0.742
4/26/2023 18:29:05.530,-0.305,-1.457,-0.719
4/26/2023 18:29:05.540,-0.324,-1.434,-0.727
4/26/2023 18:29:05.550,-0.355,-1.359,-0.734
4/26/2023 18:29:05.560,-0.344,-1.246,-0.691
4/26/2023 18:29:05.570,-0.313,-1.109,-0.59
4/26/2023 18:29:05.580,-0.316,-0.957,-0.48
4/26/2023 18:29:05.590,-0.32,-0.785,-0.375
4/26/2023 18:29:05.600,-0.309,-0.645,-0.281
4/26/2023 18:29:05.610,-0.32,-0.539,-0.23
4/26/2023 18:29:05.620,-0.309,-0.453,-0.203
4/26/2023 18:29:05.630,-0.266,-0.387,-0.188
4/26/2023 18:29:05.640,-0.254,-0.348,-0.184
4/26/2023 18:29:05.650,-0.238,-0.34,-0.176
4/26/2023 18:29:05.660,-0.219,-0.359,-0.16
4/26/2023 18:29:05.670,-0.219,-0.375,-0.152
4/26/2023 18:29:05.680,-0.227,-0.375,-0.16
4/26/2023 18:29:05.690,-0.227,-0.395,-0.141
4/26/2023 18:29:05.700,-0.211,-0.422,-0.117
4/26/2023 18:29:05.710,-0.199,-0.43,-0.105
4/26/2023 18:29:05.720,-0.18,-0.449,-0.09
4/26/2023 18:29:05.730,-0.172,-0.473,-0.094
4/26/2023 18:29:05.740,-0.172,-0.508,-0.098
4/26/2023 18:29:05.750,-0.156,-0.547,-0.105
4/26/2023 18:29:05.760,-0.121,-0.605,-0.109
4/26/2023 18:29:05.770,-0.086,-0.699,-0.148
4/26/2023 18:29:05.780,-0.082,-0.84,-0.27
4/26/2023 18:29:05.790,-0.066,-0.973,-0.434
4/26/2023 18:29:05.800,-0.113,-1.023,-0.598
4/26/2023 18:29:05.810,-0.23,-1.008,-0.648
4/26/2023 18:29:05.820,-0.395,-1.051,-0.586
4/26/2023 18:29:05.830,-0.555,-1.313,-0.523
4/26/2023 18:29:05.840,-0.59,-1.656,-0.48
4/26/2023 18:29:05.850,-0.523,-1.871,-0.422
4/26/2023 18:29:05.860,-0.457,-1.902,-0.352
4/26/2023 18:29:05.870,-0.406,-1.598,-0.613
4/26/2023 18:29:05.880,-0.242,-1.145,-0.813
4/26/2023 18:29:05.890,0,-1.063,-0.543
4/26/2023 18:29:05.900,-0.141,-1.066,-0.551
4/26/2023 18:29:05.910,-0.438,-0.941,-0.809
4/26/2023 18:29:05.920,-0.684,-0.969,-0.918
4/26/2023 18:29:05.930,-0.77,-1.129,-0.801
4/26/2023 18:29:05.940,-0.742,-1.172,-0.68
4/26/2023 18:29:05.950,-0.699,-1.063,-0.688
4/26/2023 18:29:05.960,-0.598,-0.836,-0.781
4/26/2023 18:29:05.970,-0.504,-0.801,-0.785
4/26/2023 18:29:05.980,-0.504,-0.91,-0.734
4/26/2023 18:29:05.990,-0.504,-0.926,-0.723
4/26/2023 18:29:06.000,-0.492,-0.879,-0.73
4/26/2023 18:29:06.010,-0.5,-0.855,-0.746
4/26/2023 18:29:06.020,-0.512,-0.867,-0.777
4/26/2023 18:29:06.030,-0.496,-0.918,-0.727
4/26/2023 18:29:06.040,-0.469,-0.941,-0.641
4/26/2023 18:29:06.050,-0.441,-0.918,-0.574
4/26/2023 18:29:06.060,-0.434,-0.875,-0.547
4/26/2023 18:29:06.070,-0.395,-0.828,-0.531
4/26/2023 18:29:06.080,-0.34,-0.777,-0.504
4/26/2023 18:29:06.090,-0.27,-0.703,-0.469
4/26/2023 18:29:06.100,-0.188,-0.617,-0.438
4/26/2023 18:29:06.110,-0.148,-0.551,-0.398
4/26/2023 18:29:06.120,-0.121,-0.477,-0.379
4/26/2023 18:29:06.130,-0.078,-0.426,-0.336
4/26/2023 18:29:06.140,-0.047,-0.383,-0.305
4/26/2023 18:29:06.150,-0.027,-0.363,-0.277
4/26/2023 18:29:06.160,-0.023,-0.371,-0.258
4/26/2023 18:29:06.170,-0.039,-0.398,-0.25
4/26/2023 18:29:06.180,-0.063,-0.414,-0.266
4/26/2023 18:29:06.190,-0.094,-0.434,-0.273
4/26/2023 18:29:06.200,-0.117,-0.453,-0.289
4/26/2023 18:29:06.210,-0.148,-0.504,-0.309
4/26/2023 18:29:06.220,-0.195,-0.566,-0.344
4/26/2023 18:29:06.230,-0.238,-0.621,-0.375
4/26/2023 18:29:06.240,-0.238,-0.668,-0.395
4/26/2023 18:29:06.250,-0.227,-0.758,-0.375
4/26/2023 18:29:06.260,-0.223,-0.906,-0.309
4/26/2023 18:29:06.270,-0.211,-1.004,-0.238
4/26/2023 18:29:06.280,-0.16,-1.051,-0.18
4/26/2023 18:29:06.290,-0.145,-1.102,-0.137
4/26/2023 18:29:06.300,-0.172,-1.176,-0.148
4/26/2023 18:29:06.310,-0.168,-1.219,-0.203
4/26/2023 18:29:06.320,-0.133,-1.219,-0.289
4/26/2023 18:29:06.330,-0.012,-1.188,-0.336
4/26/2023 18:29:06.340,0.109,-1.227,-0.328
4/26/2023 18:29:06.350,0.145,-1.32,-0.344
4/26/2023 18:29:06.360,0.121,-1.445,-0.301
4/26/2023 18:29:06.370,-0.055,-1.508,-0.355
4/26/2023 18:29:06.380,-0.246,-1.465,-0.602
4/26/2023 18:29:06.390,-0.363,-1.523,-0.715
4/26/2023 18:29:06.400,-0.328,-1.426,-0.645
4/26/2023 18:29:06.410,-0.277,-1.113,-0.707
4/26/2023 18:29:06.420,-0.285,-0.957,-0.762
4/26/2023 18:29:06.430,-0.355,-0.992,-0.688
4/26/2023 18:29:06.440,-0.516,-0.949,-0.629
4/26/2023 18:29:06.450,-0.73,-0.789,-0.629
4/26/2023 18:29:06.460,-0.895,-0.766,-0.645
4/26/2023 18:29:06.470,-0.941,-0.934,-0.688
4/26/2023 18:29:06.480,-0.863,-1.148,-0.703
4/26/2023 18:29:06.490,-0.734,-1.277,-0.754
4/26/2023 18:29:06.500,-0.578,-1.348,-0.797
4/26/2023 18:29:06.510,-0.441,-1.398,-0.781
4/26/2023 18:29:06.520,-0.406,-1.434,-0.77
4/26/2023 18:29:06.530,-0.363,-1.355,-0.77
4/26/2023 18:29:06.540,-0.328,-1.234,-0.766
4/26/2023 18:29:06.550,-0.289,-1.109,-0.707
4/26/2023 18:29:06.560,-0.238,-0.98,-0.582
4/26/2023 18:29:06.570,-0.227,-0.867,-0.43
4/26/2023 18:29:06.580,-0.238,-0.754,-0.32
4/26/2023 18:29:06.590,-0.227,-0.629,-0.227
4/26/2023 18:29:06.600,-0.238,-0.52,-0.191
4/26/2023 18:29:06.610,-0.238,-0.441,-0.145
4/26/2023 18:29:06.620,-0.215,-0.406,-0.102
4/26/2023 18:29:06.630,-0.219,-0.375,-0.121
4/26/2023 18:29:06.640,-0.207,-0.363,-0.113
4/26/2023 18:29:06.650,-0.191,-0.367,-0.113
4/26/2023 18:29:06.660,-0.191,-0.363,-0.125
4/26/2023 18:29:06.670,-0.176,-0.367,-0.113
4/26/2023 18:29:06.680,-0.156,-0.367,-0.094
4/26/2023 18:29:06.690,-0.152,-0.375,-0.078
4/26/2023 18:29:06.700,-0.145,-0.383,-0.07
4/26/2023 18:29:06.710,-0.145,-0.414,-0.07
4/26/2023 18:29:06.720,-0.16,-0.48,-0.086
4/26/2023 18:29:06.730,-0.164,-0.566,-0.094
4/26/2023 18:29:06.740,-0.152,-0.633,-0.098
4/26/2023 18:29:06.750,-0.141,-0.684,-0.121
4/26/2023 18:29:06.760,-0.137,-0.766,-0.172
4/26/2023 18:29:06.770,-0.121,-0.879,-0.266
4/26/2023 18:29:06.780,-0.082,-0.977,-0.387
4/26/2023 18:29:06.790,-0.082,-1,-0.535
4/26/2023 18:29:06.800,-0.199,-0.965,-0.613
4/26/2023 18:29:06.810,-0.418,-1.027,-0.527
4/26/2023 18:29:06.820,-0.594,-1.305,-0.484
4/26/2023 18:29:06.830,-0.625,-1.641,-0.527
4/26/2023 18:29:06.840,-0.492,-1.859,-0.48
4/26/2023 18:29:06.850,-0.371,-1.941,-0.391
4/26/2023 18:29:06.860,-0.289,-1.723,-0.594
4/26/2023 18:29:06.870,-0.207,-1.281,-0.914
4/26/2023 18:29:06.880,-0.074,-1.137,-0.672
4/26/2023 18:29:06.890,-0.148,-1.098,-0.508
4/26/2023 18:29:06.900,-0.422,-0.93,-0.719
4/26/2023 18:29:06.910,-0.695,-0.852,-0.867
4/26/2023 18:29:06.920,-0.828,-1.023,-0.773
4/26/2023 18:29:06.930,-0.828,-1.055,-0.734
4/26/2023 18:29:06.940,-0.723,-0.969,-0.773
4/26/2023 18:29:06.950,-0.605,-0.895,-0.848
4/26/2023 18:29:06.960,-0.426,-0.895,-0.824
4/26/2023 18:29:06.970,-0.336,-0.93,-0.781
4/26/2023 18:29:06.980,-0.316,-0.914,-0.762
4/26/2023 18:29:06.990,-0.297,-0.871,-0.719
4/26/2023 18:29:07.000,-0.305,-0.844,-0.695
4/26/2023 18:29:07.010,-0.375,-0.836,-0.727
4/26/2023 18:29:07.020,-0.426,-0.902,-0.727
4/26/2023 18:29:07.030,-0.453,-0.965,-0.648
4/26/2023 18:29:07.040,-0.473,-0.938,-0.582
4/26/2023 18:29:07.050,-0.488,-0.875,-0.543
4/26/2023 18:29:07.060,-0.496,-0.828,-0.535
4/26/2023 18:29:07.070,-0.461,-0.789,-0.516
4/26/2023 18:29:07.080,-0.395,-0.73,-0.465
4/26/2023 18:29:07.090,-0.316,-0.637,-0.418
4/26/2023 18:29:07.100,-0.23,-0.555,-0.391
4/26/2023 18:29:07.110,-0.16,-0.504,-0.402
4/26/2023 18:29:07.120,-0.109,-0.496,-0.41
4/26/2023 18:29:07.130,-0.051,-0.48,-0.398
4/26/2023 18:29:07.140,-0.008,-0.449,-0.379
4/26/2023 18:29:07.150,-0.004,-0.438,-0.359
4/26/2023 18:29:07.160,-0.012,-0.445,-0.328
4/26/2023 18:29:07.170,-0.043,-0.457,-0.305
4/26/2023 18:29:07.180,-0.098,-0.469,-0.293
4/26/2023 18:29:07.190,-0.125,-0.461,-0.273
4/26/2023 18:29:07.200,-0.152,-0.465,-0.266
4/26/2023 18:29:07.210,-0.199,-0.477,-0.313
4/26/2023 18:29:07.220,-0.211,-0.508,-0.348
4/26/2023 18:29:07.230,-0.211,-0.574,-0.371
4/26/2023 18:29:07.240,-0.195,-0.625,-0.379
4/26/2023 18:29:07.250,-0.207,-0.727,-0.344
4/26/2023 18:29:07.260,-0.211,-0.863,-0.297
4/26/2023 18:29:07.270,-0.191,-0.961,-0.27
4/26/2023 18:29:07.280,-0.164,-1.035,-0.25
4/26/2023 18:29:07.290,-0.184,-1.133,-0.227
4/26/2023 18:29:07.300,-0.199,-1.23,-0.215
4/26/2023 18:29:07.310,-0.207,-1.277,-0.25
4/26/2023 18:29:07.320,-0.125,-1.242,-0.332
4/26/2023 18:29:07.330,0.055,-1.223,-0.355
4/26/2023 18:29:07.340,0.184,-1.277,-0.352
4/26/2023 18:29:07.350,0.234,-1.344,-0.324
4/26/2023 18:29:07.360,0.168,-1.43,-0.266
4/26/2023 18:29:07.370,-0.055,-1.402,-0.398
4/26/2023 18:29:07.380,-0.301,-1.387,-0.684
4/26/2023 18:29:07.390,-0.43,-1.504,-0.754
4/26/2023 18:29:07.400,-0.367,-1.391,-0.703
4/26/2023 18:29:07.410,-0.328,-1.113,-0.777
4/26/2023 18:29:07.420,-0.387,-1.035,-0.785
4/26/2023 18:29:07.430,-0.453,-1.082,-0.656
4/26/2023 18:29:07.440,-0.543,-0.965,-0.586
4/26/2023 18:29:07.450,-0.695,-0.742,-0.605
4/26/2023 18:29:07.460,-0.809,-0.699,-0.586
4/26/2023 18:29:07.470,-0.813,-0.84,-0.621
4/26/2023 18:29:07.480,-0.715,-1.023,-0.68
4/26/2023 18:29:07.490,-0.605,-1.188,-0.73
4/26/2023 18:29:07.500,-0.504,-1.293,-0.766
4/26/2023 18:29:07.510,-0.41,-1.348,-0.754
4/26/2023 18:29:07.520,-0.379,-1.391,-0.73
4/26/2023 18:29:07.530,-0.371,-1.344,-0.738
4/26/2023 18:29:07.540,-0.359,-1.266,-0.746
4/26/2023 18:29:07.550,-0.313,-1.211,-0.68
4/26/2023 18:29:07.560,-0.262,-1.109,-0.563
4/26/2023 18:29:07.570,-0.23,-0.977,-0.438
4/26/2023 18:29:07.580,-0.199,-0.813,-0.348
4/26/2023 18:29:07.590,-0.184,-0.672,-0.277
4/26/2023 18:29:07.600,-0.168,-0.566,-0.223
4/26/2023 18:29:07.610,-0.168,-0.492,-0.18
4/26/2023 18:29:07.620,-0.184,-0.418,-0.168
4/26/2023 18:29:07.630,-0.191,-0.375,-0.152
4/26/2023 18:29:07.640,-0.215,-0.359,-0.148
4/26/2023 18:29:07.650,-0.23,-0.355,-0.152
4/26/2023 18:29:07.660,-0.23,-0.355,-0.148
4/26/2023 18:29:07.670,-0.234,-0.371,-0.148
4/26/2023 18:29:07.680,-0.23,-0.383,-0.125
4/26/2023 18:29:07.690,-0.211,-0.375,-0.113
4/26/2023 18:29:07.700,-0.203,-0.375,-0.117
4/26/2023 18:29:07.710,-0.191,-0.402,-0.117
4/26/2023 18:29:07.720,-0.199,-0.441,-0.117
4/26/2023 18:29:07.730,-0.211,-0.48,-0.133
4/26/2023 18:29:07.740,-0.223,-0.543,-0.125
4/26/2023 18:29:07.750,-0.215,-0.598,-0.117
4/26/2023 18:29:07.760,-0.203,-0.656,-0.125
4/26/2023 18:29:07.770,-0.203,-0.742,-0.172
4/26/2023 18:29:07.780,-0.188,-0.863,-0.285
4/26/2023 18:29:07.790,-0.152,-0.984,-0.449
4/26/2023 18:29:07.800,-0.141,-1.023,-0.621
4/26/2023 18:29:07.810,-0.215,-0.996,-0.68
4/26/2023 18:29:07.820,-0.32,-1.07,-0.574
4/26/2023 18:29:07.830,-0.461,-1.355,-0.531
4/26/2023 18:29:07.840,-0.512,-1.648,-0.563
4/26/2023 18:29:07.850,-0.477,-1.824,-0.52
4/26/2023 18:29:07.860,-0.391,-1.883,-0.48
4/26/2023 18:29:07.870,-0.367,-1.723,-0.703
4/26/2023 18:29:07.880,-0.301,-1.426,-0.828
4/26/2023 18:29:07.890,-0.102,-1.238,-0.598
4/26/2023 18:29:07.900,-0.156,-1.094,-0.566
4/26/2023 18:29:07.910,-0.371,-1.027,-0.656
4/26/2023 18:29:07.920,-0.582,-0.973,-0.676
4/26/2023 18:29:07.930,-0.695,-1.004,-0.574
4/26/2023 18:29:07.940,-0.691,-0.949,-0.547
4/26/2023 18:29:07.950,-0.602,-0.82,-0.578
4/26/2023 18:29:07.960,-0.523,-0.715,-0.656
4/26/2023 18:29:07.970,-0.441,-0.707,-0.691
4/26/2023 18:29:07.980,-0.414,-0.809,-0.73
4/26/2023 18:29:07.990,-0.426,-0.91,-0.793
4/26/2023 18:29:08.000,-0.426,-0.941,-0.855
4/26/2023 18:29:08.010,-0.402,-0.934,-0.828
4/26/2023 18:29:08.020,-0.469,-0.906,-0.82
4/26/2023 18:29:08.030,-0.504,-0.941,-0.785
4/26/2023 18:29:08.040,-0.5,-1,-0.688
4/26/2023 18:29:08.050,-0.473,-1.008,-0.574
4/26/2023 18:29:08.060,-0.461,-0.957,-0.508
4/26/2023 18:29:08.070,-0.465,-0.887,-0.48
4/26/2023 18:29:08.080,-0.445,-0.852,-0.469
4/26/2023 18:29:08.090,-0.395,-0.816,-0.461
4/26/2023 18:29:08.100,-0.32,-0.77,-0.43
4/26/2023 18:29:08.110,-0.238,-0.699,-0.391
4/26/2023 18:29:08.120,-0.176,-0.609,-0.363
4/26/2023 18:29:08.130,-0.133,-0.547,-0.355
4/26/2023 18:29:08.140,-0.074,-0.523,-0.328
4/26/2023 18:29:08.150,-0.02,-0.523,-0.305
4/26/2023 18:29:08.160,0.008,-0.492,-0.281
4/26/2023 18:29:08.170,0.012,-0.465,-0.273
4/26/2023 18:29:08.180,-0.004,-0.465,-0.273
4/26/2023 18:29:08.190,-0.02,-0.492,-0.266
4/26/2023 18:29:08.200,-0.055,-0.516,-0.262
4/26/2023 18:29:08.210,-0.102,-0.512,-0.258
4/26/2023 18:29:08.220,-0.141,-0.5,-0.254
4/26/2023 18:29:08.230,-0.164,-0.504,-0.27
4/26/2023 18:29:08.240,-0.164,-0.539,-0.293
4/26/2023 18:29:08.250,-0.141,-0.609,-0.32
4/26/2023 18:29:08.260,-0.133,-0.688,-0.328
4/26/2023 18:29:08.270,-0.148,-0.773,-0.305
4/26/2023 18:29:08.280,-0.168,-0.84,-0.281
4/26/2023 18:29:08.290,-0.16,-0.898,-0.281
4/26/2023 18:29:08.300,-0.129,-0.984,-0.277
4/26/2023 18:29:08.310,-0.18,-1.133,-0.281
4/26/2023 18:29:08.320,-0.262,-1.258,-0.324
4/26/2023 18:29:08.330,-0.32,-1.313,-0.375
4/26/2023 18:29:08.340,-0.293,-1.281,-0.422
4/26/2023 18:29:08.350,-0.152,-1.23,-0.398
4/26/2023 18:29:08.360,-0.02,-1.25,-0.336
4/26/2023 18:29:08.370,0.07,-1.285,-0.281
4/26/2023 18:29:08.380,0.113,-1.336,-0.227
4/26/2023 18:29:08.390,0.039,-1.375,-0.211
4/26/2023 18:29:08.400,-0.121,-1.332,-0.449
4/26/2023 18:29:08.410,-0.262,-1.371,-0.707
4/26/2023 18:29:08.420,-0.285,-1.422,-0.676
4/26/2023 18:29:08.430,-0.262,-1.211,-0.613
4/26/2023 18:29:08.440,-0.285,-0.953,-0.695
4/26/2023 18:29:08.450,-0.324,-0.922,-0.66
4/26/2023 18:29:08.460,-0.434,-0.965,-0.566
4/26/2023 18:29:08.470,-0.594,-0.848,-0.566
4/26/2023 18:29:08.480,-0.707,-0.77,-0.586
4/26/2023 18:29:08.490,-0.762,-0.914,-0.602
4/26/2023 18:29:08.500,-0.742,-1.129,-0.641
4/26/2023 18:29:08.510,-0.648,-1.277,-0.676
4/26/2023 18:29:08.520,-0.523,-1.344,-0.695
4/26/2023 18:29:08.530,-0.422,-1.387,-0.691
4/26/2023 18:29:08.540,-0.371,-1.453,-0.676
4/26/2023 18:29:08.550,-0.363,-1.426,-0.68
4/26/2023 18:29:08.560,-0.34,-1.293,-0.68
4/26/2023 18:29:08.570,-0.254,-1.152,-0.645
4/26/2023 18:29:08.580,-0.215,-1.055,-0.574
4/26/2023 18:29:08.590,-0.203,-0.957,-0.484
4/26/2023 18:29:08.600,-0.211,-0.828,-0.406
4/26/2023 18:29:08.610,-0.23,-0.703,-0.324
4/26/2023 18:29:08.620,-0.281,-0.598,-0.281
4/26/2023 18:29:08.630,-0.313,-0.508,-0.254
4/26/2023 18:29:08.640,-0.316,-0.441,-0.234
4/26/2023 18:29:08.650,-0.305,-0.406,-0.211
4/26/2023 18:29:08.660,-0.285,-0.387,-0.199
4/26/2023 18:29:08.670,-0.277,-0.395,-0.207
4/26/2023 18:29:08.680,-0.262,-0.395,-0.211
4/26/2023 18:29:08.690,-0.246,-0.402,-0.203
4/26/2023 18:29:08.700,-0.227,-0.406,-0.191
4/26/2023 18:29:08.710,-0.227,-0.414,-0.176
4/26/2023 18:29:08.720,-0.223,-0.422,-0.141
4/26/2023 18:29:08.730,-0.219,-0.449,-0.121
4/26/2023 18:29:08.740,-0.223,-0.488,-0.102
4/26/2023 18:29:08.750,-0.234,-0.535,-0.109
4/26/2023 18:29:08.760,-0.223,-0.598,-0.113
4/26/2023 18:29:08.770,-0.188,-0.641,-0.129
4/26/2023 18:29:08.780,-0.168,-0.66,-0.148
4/26/2023 18:29:08.790,-0.168,-0.723,-0.16
4/26/2023 18:29:08.800,-0.184,-0.824,-0.25
4/26/2023 18:29:08.810,-0.172,-0.918,-0.391
4/26/2023 18:29:08.820,-0.145,-0.969,-0.555
4/26/2023 18:29:08.830,-0.234,-0.949,-0.637
4/26/2023 18:29:08.840,-0.371,-1.004,-0.52
4/26/2023 18:29:08.850,-0.563,-1.238,-0.5
4/26/2023 18:29:08.860,-0.582,-1.582,-0.484
4/26/2023 18:29:08.870,-0.516,-1.82,-0.461
4/26/2023 18:29:08.880,-0.531,-1.863,-0.645
4/26/2023 18:29:08.890,-0.574,-1.602,-0.949
4/26/2023 18:29:08.900,-0.203,-1.387,-0.625
4/26/2023 18:29:08.910,0.027,-1.23,-0.422
4/26/2023 18:29:08.920,-0.172,-1.008,-0.598
4/26/2023 18:29:08.930,-0.379,-0.816,-0.734
4/26/2023 18:29:08.940,-0.559,-0.926,-0.656
4/26/2023 18:29:08.950,-0.609,-1.016,-0.57
4/26/2023 18:29:08.960,-0.574,-0.969,-0.582
4/26/2023 18:29:08.970,-0.496,-0.832,-0.695
4/26/2023 18:29:08.980,-0.414,-0.789,-0.805
4/26/2023 18:29:08.990,-0.391,-0.906,-0.852
4/26/2023 18:29:09.000,-0.434,-1,-0.855
4/26/2023 18:29:09.010,-0.453,-0.988,-0.836
4/26/2023 18:29:09.020,-0.496,-0.977,-0.832
4/26/2023 18:29:09.030,-0.574,-0.984,-0.836
4/26/2023 18:29:09.040,-0.59,-0.984,-0.797
4/26/2023 18:29:09.050,-0.555,-0.988,-0.695
4/26/2023 18:29:09.060,-0.508,-0.957,-0.598
4/26/2023 18:29:09.070,-0.492,-0.906,-0.551
4/26/2023 18:29:09.080,-0.469,-0.855,-0.547
4/26/2023 18:29:09.090,-0.422,-0.84,-0.535
4/26/2023 18:29:09.100,-0.34,-0.805,-0.496
4/26/2023 18:29:09.110,-0.258,-0.727,-0.453
4/26/2023 18:29:09.120,-0.195,-0.621,-0.395
4/26/2023 18:29:09.130,-0.141,-0.527,-0.355
4/26/2023 18:29:09.140,-0.09,-0.461,-0.34
4/26/2023 18:29:09.150,-0.055,-0.434,-0.32
4/26/2023 18:29:09.160,-0.02,-0.406,-0.293
4/26/2023 18:29:09.170,-0.016,-0.402,-0.277
4/26/2023 18:29:09.180,-0.016,-0.422,-0.273
4/26/2023 18:29:09.190,-0.023,-0.438,-0.27
4/26/2023 18:29:09.200,-0.051,-0.438,-0.277
4/26/2023 18:29:09.210,-0.074,-0.461,-0.266
4/26/2023 18:29:09.220,-0.113,-0.473,-0.27
4/26/2023 18:29:09.230,-0.145,-0.48,-0.281
4/26/2023 18:29:09.240,-0.164,-0.504,-0.313
4/26/2023 18:29:09.250,-0.16,-0.547,-0.348
4/26/2023 18:29:09.260,-0.148,-0.617,-0.352
4/26/2023 18:29:09.270,-0.141,-0.719,-0.32
4/26/2023 18:29:09.280,-0.125,-0.824,-0.277
4/26/2023 18:29:09.290,-0.09,-0.91,-0.258
4/26/2023 18:29:09.300,-0.059,-0.988,-0.258
4/26/2023 18:29:09.310,-0.094,-1.105,-0.262
4/26/2023 18:29:09.320,-0.18,-1.219,-0.285
4/26/2023 18:29:09.330,-0.254,-1.254,-0.324
4/26/2023 18:29:09.340,-0.281,-1.234,-0.387
4/26/2023 18:29:09.350,-0.168,-1.18,-0.402
4/26/2023 18:29:09.360,-0.023,-1.199,-0.355
4/26/2023 18:29:09.370,0.078,-1.266,-0.309
4/26/2023 18:29:09.380,0.082,-1.34,-0.27
4/26/2023 18:29:09.390,0.004,-1.391,-0.402
4/26/2023 18:29:09.400,-0.125,-1.465,-0.602
4/26/2023 18:29:09.410,-0.297,-1.574,-0.645
4/26/2023 18:29:09.420,-0.309,-1.414,-0.664
4/26/2023 18:29:09.430,-0.313,-1.172,-0.832
4/26/2023 18:29:09.440,-0.379,-1.145,-0.867
4/26/2023 18:29:09.450,-0.387,-1.148,-0.781
4/26/2023 18:29:09.460,-0.477,-1.066,-0.695
4/26/2023 18:29:09.470,-0.684,-0.914,-0.652
4/26/2023 18:29:09.480,-0.859,-0.816,-0.648
4/26/2023 18:29:09.490,-0.898,-0.879,-0.664
4/26/2023 18:29:09.500,-0.844,-1.027,-0.621
4/26/2023 18:29:09.510,-0.695,-1.098,-0.602
4/26/2023 18:29:09.520,-0.527,-1.152,-0.637
4/26/2023 18:29:09.530,-0.418,-1.227,-0.672
4/26/2023 18:29:09.540,-0.371,-1.293,-0.668
4/26/2023 18:29:09.550,-0.328,-1.27,-0.672
4/26/2023 18:29:09.560,-0.285,-1.191,-0.691
4/26/2023 18:29:09.570,-0.23,-1.129,-0.676
4/26/2023 18:29:09.580,-0.199,-1.074,-0.625
4/26/2023 18:29:09.590,-0.219,-0.977,-0.543
4/26/2023 18:29:09.600,-0.227,-0.852,-0.438
4/26/2023 18:29:09.610,-0.266,-0.734,-0.352
4/26/2023 18:29:09.620,-0.305,-0.641,-0.273
4/26/2023 18:29:09.630,-0.348,-0.539,-0.219
4/26/2023 18:29:09.640,-0.355,-0.457,-0.188
4/26/2023 18:29:09.650,-0.328,-0.422,-0.16
4/26/2023 18:29:09.660,-0.332,-0.402,-0.172
4/26/2023 18:29:09.670,-0.316,-0.402,-0.184
4/26/2023 18:29:09.680,-0.273,-0.398,-0.18
4/26/2023 18:29:09.690,-0.234,-0.398,-0.191
4/26/2023 18:29:09.700,-0.203,-0.414,-0.191
4/26/2023 18:29:09.710,-0.172,-0.434,-0.18
4/26/2023 18:29:09.720,-0.145,-0.445,-0.168
4/26/2023 18:29:09.730,-0.125,-0.469,-0.148
4/26/2023 18:29:09.740,-0.129,-0.512,-0.125
4/26/2023 18:29:09.750,-0.145,-0.555,-0.125
4/26/2023 18:29:09.760,-0.145,-0.598,-0.117
4/26/2023 18:29:09.770,-0.133,-0.664,-0.117
4/26/2023 18:29:09.780,-0.109,-0.754,-0.102
4/26/2023 18:29:09.790,-0.082,-0.828,-0.133
4/26/2023 18:29:09.800,-0.086,-0.867,-0.266
4/26/2023 18:29:09.810,-0.063,-0.875,-0.418
4/26/2023 18:29:09.820,-0.109,-0.797,-0.582
4/26/2023 18:29:09.830,-0.219,-0.742,-0.656
4/26/2023 18:29:09.840,-0.395,-0.844,-0.59
4/26/2023 18:29:09.850,-0.551,-1.234,-0.496
4/26/2023 18:29:09.860,-0.578,-1.625,-0.48
4/26/2023 18:29:09.870,-0.578,-1.813,-0.547
4/26/2023 18:29:09.880,-0.695,-1.801,-0.871
4/26/2023 18:29:09.890,-0.766,-1.582,-1.09
4/26/2023 18:29:09.900,-0.398,-1.375,-0.68
4/26/2023 18:29:09.910,-0.176,-1.105,-0.547
4/26/2023 18:29:09.920,-0.246,-0.934,-0.633
4/26/2023 18:29:09.930,-0.297,-0.844,-0.59
4/26/2023 18:29:09.940,-0.457,-0.988,-0.496
4/26/2023 18:29:09.950,-0.531,-1.078,-0.527
4/26/2023 18:29:09.960,-0.461,-1.023,-0.621
4/26/2023 18:29:09.970,-0.355,-0.914,-0.684
4/26/2023 18:29:09.980,-0.297,-0.797,-0.727
4/26/2023 18:29:09.990,-0.328,-0.816,-0.785
4/26/2023 18:29:10.000,-0.445,-0.91,-0.891
4/26/2023 18:29:10.010,-0.543,-0.945,-0.988
4/26/2023 18:29:10.020,-0.594,-0.949,-0.973
4/26/2023 18:29:10.030,-0.66,-0.898,-0.879
4/26/2023 18:29:10.040,-0.688,-0.879,-0.781
4/26/2023 18:29:10.050,-0.641,-0.918,-0.676
4/26/2023 18:29:10.060,-0.574,-0.914,-0.594
4/26/2023 18:29:10.070,-0.527,-0.863,-0.535
4/26/2023 18:29:10.080,-0.508,-0.816,-0.492
4/26/2023 18:29:10.090,-0.48,-0.793,-0.473
4/26/2023 18:29:10.100,-0.422,-0.781,-0.48
4/26/2023 18:29:10.110,-0.34,-0.758,-0.504
4/26/2023 18:29:10.120,-0.262,-0.734,-0.52
4/26/2023 18:29:10.130,-0.203,-0.699,-0.516
4/26/2023 18:29:10.140,-0.148,-0.652,-0.48
4/26/2023 18:29:10.150,-0.086,-0.582,-0.426
4/26/2023 18:29:10.160,-0.051,-0.516,-0.371
4/26/2023 18:29:10.170,-0.039,-0.48,-0.32
4/26/2023 18:29:10.180,-0.043,-0.477,-0.297
4/26/2023 18:29:10.190,-0.055,-0.496,-0.301
4/26/2023 18:29:10.200,-0.07,-0.535,-0.305
4/26/2023 18:29:10.210,-0.086,-0.551,-0.297
4/26/2023 18:29:10.220,-0.133,-0.551,-0.285
4/26/2023 18:29:10.230,-0.184,-0.547,-0.262
4/26/2023 18:29:10.240,-0.195,-0.539,-0.246
4/26/2023 18:29:10.250,-0.188,-0.535,-0.227
4/26/2023 18:29:10.260,-0.141,-0.555,-0.215
4/26/2023 18:29:10.270,-0.082,-0.582,-0.227
4/26/2023 18:29:10.280,-0.047,-0.641,-0.227
4/26/2023 18:29:10.290,-0.047,-0.715,-0.227
4/26/2023 18:29:10.300,-0.066,-0.777,-0.25
4/26/2023 18:29:10.310,-0.105,-0.844,-0.289
4/26/2023 18:29:10.320,-0.188,-0.949,-0.324
4/26/2023 18:29:10.330,-0.258,-1.063,-0.344
4/26/2023 18:29:10.340,-0.32,-1.176,-0.352
4/26/2023 18:29:10.350,-0.305,-1.211,-0.379
4/26/2023 18:29:10.360,-0.184,-1.184,-0.395
4/26/2023 18:29:10.370,-0.023,-1.242,-0.355
4/26/2023 18:29:10.380,0.125,-1.32,-0.297
4/26/2023 18:29:10.390,0.164,-1.402,-0.242
4/26/2023 18:29:10.400,0.074,-1.434,-0.262
4/26/2023 18:29:10.410,-0.098,-1.434,-0.465
4/26/2023 18:29:10.420,-0.301,-1.52,-0.676
4/26/2023 18:29:10.430,-0.332,-1.527,-0.699
4/26/2023 18:29:10.440,-0.301,-1.297,-0.707
4/26/2023 18:29:10.450,-0.344,-1.094,-0.809
4/26/2023 18:29:10.460,-0.387,-1.082,-0.777
4/26/2023 18:29:10.470,-0.434,-1.066,-0.66
4/26/2023 18:29:10.480,-0.563,-0.91,-0.613
4/26/2023 18:29:10.490,-0.754,-0.75,-0.621
4/26/2023 18:29:10.500,-0.879,-0.77,-0.609
4/26/2023 18:29:10.510,-0.805,-0.93,-0.598
4/26/2023 18:29:10.520,-0.68,-1.078,-0.641
4/26/2023 18:29:10.530,-0.543,-1.199,-0.676
4/26/2023 18:29:10.540,-0.406,-1.293,-0.699
4/26/2023 18:29:10.550,-0.324,-1.348,-0.68
4/26/2023 18:29:10.560,-0.285,-1.332,-0.668
4/26/2023 18:29:10.570,-0.262,-1.277,-0.668
4/26/2023 18:29:10.580,-0.215,-1.23,-0.637
4/26/2023 18:29:10.590,-0.191,-1.188,-0.598
4/26/2023 18:29:10.600,-0.199,-1.082,-0.547
4/26/2023 18:29:10.610,-0.188,-0.891,-0.445
4/26/2023 18:29:10.620,-0.211,-0.715,-0.34
4/26/2023 18:29:10.630,-0.246,-0.602,-0.25
4/26/2023 18:29:10.640,-0.293,-0.527,-0.207
4/26/2023 18:29:10.650,-0.32,-0.449,-0.184
4/26/2023 18:29:10.660,-0.313,-0.41,-0.164
4/26/2023 18:29:10.670,-0.332,-0.379,-0.168
4/26/2023 18:29:10.680,-0.34,-0.359,-0.176
4/26/2023 18:29:10.690,-0.332,-0.371,-0.168
4/26/2023 18:29:10.700,-0.309,-0.391,-0.168
4/26/2023 18:29:10.710,-0.277,-0.406,-0.172
4/26/2023 18:29:10.720,-0.246,-0.438,-0.156
4/26/2023 18:29:10.730,-0.199,-0.453,-0.141
4/26/2023 18:29:10.740,-0.16,-0.469,-0.125
4/26/2023 18:29:10.750,-0.121,-0.496,-0.117
4/26/2023 18:29:10.760,-0.098,-0.539,-0.117
4/26/2023 18:29:10.770,-0.09,-0.586,-0.133
4/26/2023 18:29:10.780,-0.09,-0.637,-0.148
4/26/2023 18:29:10.790,-0.086,-0.672,-0.164
4/26/2023 18:29:10.800,-0.094,-0.727,-0.176
4/26/2023 18:29:10.810,-0.129,-0.816,-0.234
4/26/2023 18:29:10.820,-0.148,-0.906,-0.344
4/26/2023 18:29:10.830,-0.172,-0.945,-0.523
4/26/2023 18:29:10.840,-0.227,-0.914,-0.684
4/26/2023 18:29:10.850,-0.316,-0.902,-0.648
4/26/2023 18:29:10.860,-0.496,-1.063,-0.531
4/26/2023 18:29:10.870,-0.605,-1.383,-0.52
4/26/2023 18:29:10.880,-0.598,-1.598,-0.547
4/26/2023 18:29:10.890,-0.555,-1.727,-0.59
4/26/2023 18:29:10.900,-0.574,-1.785,-0.816
4/26/2023 18:29:10.910,-0.535,-1.738,-0.902
4/26/2023 18:29:10.920,-0.223,-1.57,-0.57
4/26/2023 18:29:10.930,-0.047,-1.191,-0.48
4/26/2023 18:29:10.940,-0.121,-1.02,-0.523
4/26/2023 18:29:10.950,-0.305,-0.965,-0.551
4/26/2023 18:29:10.960,-0.492,-0.93,-0.484
4/26/2023 18:29:10.970,-0.668,-0.879,-0.508
4/26/2023 18:29:10.980,-0.703,-0.844,-0.598
4/26/2023 18:29:10.990,-0.613,-0.813,-0.676
4/26/2023 18:29:11.000,-0.523,-0.832,-0.727
4/26/2023 18:29:11.010,-0.434,-0.863,-0.789
4/26/2023 18:29:11.020,-0.398,-0.922,-0.828
4/26/2023 18:29:11.030,-0.414,-0.949,-0.84
4/26/2023 18:29:11.040,-0.414,-0.891,-0.832
4/26/2023 18:29:11.050,-0.43,-0.836,-0.785
4/26/2023 18:29:11.060,-0.473,-0.828,-0.734
4/26/2023 18:29:11.070,-0.48,-0.875,-0.66
4/26/2023 18:29:11.080,-0.484,-0.895,-0.563
4/26/2023 18:29:11.090,-0.492,-0.848,-0.488
4/26/2023 18:29:11.100,-0.508,-0.793,-0.469
4/26/2023 18:29:11.110,-0.496,-0.777,-0.465
4/26/2023 18:29:11.120,-0.438,-0.793,-0.469
4/26/2023 18:29:11.130,-0.359,-0.781,-0.465
4/26/2023 18:29:11.140,-0.281,-0.73,-0.461
4/26/2023 18:29:11.150,-0.211,-0.656,-0.445
4/26/2023 18:29:11.160,-0.145,-0.602,-0.422
4/26/2023 18:29:11.170,-0.082,-0.547,-0.387
4/26/2023 18:29:11.180,-0.035,-0.508,-0.355
4/26/2023 18:29:11.190,0,-0.492,-0.324
4/26/2023 18:29:11.200,0.012,-0.48,-0.305
4/26/2023 18:29:11.210,-0.004,-0.512,-0.289
4/26/2023 18:29:11.220,-0.008,-0.547,-0.293
4/26/2023 18:29:11.230,-0.031,-0.566,-0.297
4/26/2023 18:29:11.240,-0.066,-0.551,-0.289
4/26/2023 18:29:11.250,-0.117,-0.539,-0.273
4/26/2023 18:29:11.260,-0.129,-0.555,-0.266
4/26/2023 18:29:11.270,-0.113,-0.582,-0.273
4/26/2023 18:29:11.280,-0.098,-0.613,-0.297
4/26/2023 18:29:11.290,-0.066,-0.66,-0.316
4/26/2023 18:29:11.300,-0.07,-0.762,-0.301
4/26/2023 18:29:11.310,-0.098,-0.863,-0.281
4/26/2023 18:29:11.320,-0.121,-0.922,-0.277
4/26/2023 18:29:11.330,-0.141,-0.977,-0.281
4/26/2023 18:29:11.340,-0.211,-1.074,-0.289
4/26/2023 18:29:11.350,-0.289,-1.195,-0.289
4/26/2023 18:29:11.360,-0.344,-1.273,-0.328
4/26/2023 18:29:11.370,-0.301,-1.242,-0.383
4/26/2023 18:29:11.380,-0.141,-1.223,-0.379
4/26/2023 18:29:11.390,0.012,-1.266,-0.352
4/26/2023 18:29:11.400,0.133,-1.324,-0.32
4/26/2023 18:29:11.410,0.168,-1.398,-0.273
4/26/2023 18:29:11.420,0.043,-1.43,-0.305
4/26/2023 18:29:11.430,-0.141,-1.387,-0.531
4/26/2023 18:29:11.440,-0.27,-1.453,-0.645
4/26/2023 18:29:11.450,-0.293,-1.414,-0.578
4/26/2023 18:29:11.460,-0.32,-1.156,-0.664
4/26/2023 18:29:11.470,-0.383,-1.008,-0.809
4/26/2023 18:29:11.480,-0.445,-1.07,-0.793
4/26/2023 18:29:11.490,-0.461,-1.047,-0.707
4/26/2023 18:29:11.500,-0.547,-0.852,-0.633
4/26/2023 18:29:11.510,-0.711,-0.688,-0.551
4/26/2023 18:29:11.520,-0.801,-0.68,-0.527
4/26/2023 18:29:11.530,-0.766,-0.852,-0.543
4/26/2023 18:29:11.540,-0.676,-1.031,-0.566
4/26/2023 18:29:11.550,-0.559,-1.164,-0.609
4/26/2023 18:29:11.560,-0.434,-1.277,-0.656
4/26/2023 18:29:11.570,-0.355,-1.395,-0.684
4/26/2023 18:29:11.580,-0.316,-1.422,-0.715
4/26/2023 18:29:11.590,-0.309,-1.348,-0.762
4/26/2023 18:29:11.600,-0.266,-1.246,-0.746
4/26/2023 18:29:11.610,-0.195,-1.16,-0.664
4/26/2023 18:29:11.620,-0.211,-1.047,-0.586
4/26/2023 18:29:11.630,-0.23,-0.895,-0.48
4/26/2023 18:29:11.640,-0.238,-0.762,-0.371
4/26/2023 18:29:11.650,-0.258,-0.66,-0.293
4/26/2023 18:29:11.660,-0.266,-0.598,-0.227
4/26/2023 18:29:11.670,-0.289,-0.539,-0.195
4/26/2023 18:29:11.680,-0.316,-0.492,-0.184
4/26/2023 18:29:11.690,-0.301,-0.469,-0.164
4/26/2023 18:29:11.700,-0.281,-0.457,-0.152
4/26/2023 18:29:11.710,-0.258,-0.426,-0.152
4/26/2023 18:29:11.720,-0.23,-0.398,-0.16
4/26/2023 18:29:11.730,-0.195,-0.395,-0.16
4/26/2023 18:29:11.740,-0.152,-0.41,-0.141
4/26/2023 18:29:11.750,-0.121,-0.418,-0.133
4/26/2023 18:29:11.760,-0.098,-0.434,-0.129
4/26/2023 18:29:11.770,-0.094,-0.469,-0.133
4/26/2023 18:29:11.780,-0.102,-0.531,-0.137
4/26/2023 18:29:11.790,-0.133,-0.598,-0.145
4/26/2023 18:29:11.800,-0.156,-0.656,-0.145
4/26/2023 18:29:11.810,-0.164,-0.699,-0.137
4/26/2023 18:29:11.820,-0.156,-0.742,-0.117
4/26/2023 18:29:11.830,-0.141,-0.813,-0.129
4/26/2023 18:29:11.840,-0.148,-0.906,-0.238
4/26/2023 18:29:11.850,-0.117,-0.992,-0.418
4/26/2023 18:29:11.860,-0.094,-1.023,-0.578
4/26/2023 18:29:11.870,-0.191,-0.988,-0.652
4/26/2023 18:29:11.880,-0.383,-0.977,-0.578
4/26/2023 18:29:11.890,-0.594,-1.172,-0.496
4/26/2023 18:29:11.900,-0.629,-1.445,-0.492
4/26/2023 18:29:11.910,-0.574,-1.613,-0.602
4/26/2023 18:29:11.920,-0.699,-1.723,-0.996
4/26/2023 18:29:11.930,-0.781,-1.742,-1.07
4/26/2023 18:29:11.940,-0.344,-1.574,-0.594
4/26/2023 18:29:11.950,-0.16,-1.152,-0.602
4/26/2023 18:29:11.960,-0.262,-0.992,-0.758
4/26/2023 18:29:11.970,-0.34,-1.047,-0.621
4/26/2023 18:29:11.980,-0.402,-1.109,-0.398
4/26/2023 18:29:11.990,-0.48,-1.047,-0.418
4/26/2023 18:29:12.000,-0.473,-0.969,-0.559
4/26/2023 18:29:12.010,-0.43,-0.891,-0.691
4/26/2023 18:29:12.020,-0.395,-0.824,-0.734
4/26/2023 18:29:12.030,-0.414,-0.813,-0.777
4/26/2023 18:29:12.040,-0.445,-0.859,-0.82
4/26/2023 18:29:12.050,-0.484,-0.844,-0.875
4/26/2023 18:29:12.060,-0.508,-0.801,-0.875
4/26/2023 18:29:12.070,-0.551,-0.813,-0.805
4/26/2023 18:29:12.080,-0.566,-0.824,-0.738
4/26/2023 18:29:12.090,-0.512,-0.848,-0.645
4/26/2023 18:29:12.100,-0.434,-0.852,-0.555
4/26/2023 18:29:12.110,-0.383,-0.805,-0.496
4/26/2023 18:29:12.120,-0.367,-0.77,-0.473
4/26/2023 18:29:12.130,-0.363,-0.762,-0.48
4/26/2023 18:29:12.140,-0.34,-0.773,-0.496
4/26/2023 18:29:12.150,-0.301,-0.762,-0.512
4/26/2023 18:29:12.160,-0.27,-0.723,-0.508
4/26/2023 18:29:12.170,-0.262,-0.699,-0.484
4/26/2023 18:29:12.180,-0.219,-0.656,-0.441
4/26/2023 18:29:12.190,-0.152,-0.613,-0.379
4/26/2023 18:29:12.200,-0.113,-0.566,-0.324
4/26/2023 18:29:12.210,-0.07,-0.523,-0.289
4/26/2023 18:29:12.220,-0.047,-0.508,-0.281
4/26/2023 18:29:12.230,-0.023,-0.508,-0.273
4/26/2023 18:29:12.240,-0.004,-0.516,-0.266
4/26/2023 18:29:12.250,0,-0.523,-0.27
4/26/2023 18:29:12.260,-0.027,-0.535,-0.285
4/26/2023 18:29:12.270,-0.074,-0.566,-0.297
4/26/2023 18:29:12.280,-0.094,-0.621,-0.289
4/26/2023 18:29:12.290,-0.086,-0.66,-0.285
4/26/2023 18:29:12.300,-0.074,-0.684,-0.285
4/26/2023 18:29:12.310,-0.078,-0.727,-0.258
4/26/2023 18:29:12.320,-0.086,-0.785,-0.211
4/26/2023 18:29:12.330,-0.102,-0.82,-0.207
4/26/2023 18:29:12.340,-0.09,-0.828,-0.227
4/26/2023 18:29:12.350,-0.105,-0.867,-0.238
4/26/2023 18:29:12.360,-0.168,-0.949,-0.242
4/26/2023 18:29:12.370,-0.254,-1.035,-0.27
4/26/2023 18:29:12.380,-0.32,-1.094,-0.34
4/26/2023 18:29:12.390,-0.289,-1.121,-0.426
4/26/2023 18:29:12.400,-0.18,-1.188,-0.434
4/26/2023 18:29:12.410,-0.078,-1.297,-0.395
4/26/2023 18:29:12.420,0.031,-1.379,-0.34
4/26/2023 18:29:12.430,0.098,-1.449,-0.27
4/26/2023 18:29:12.440,0.02,-1.473,-0.285
4/26/2023 18:29:12.450,-0.078,-1.418,-0.484
4/26/2023 18:29:12.460,-0.18,-1.449,-0.609
4/26/2023 18:29:12.470,-0.223,-1.465,-0.609
4/26/2023 18:29:12.480,-0.242,-1.313,-0.719
4/26/2023 18:29:12.490,-0.313,-1.164,-0.855
4/26/2023 18:29:12.500,-0.395,-1.16,-0.816
4/26/2023 18:29:12.510,-0.449,-1.133,-0.664
4/26/2023 18:29:12.520,-0.586,-0.961,-0.598
4/26/2023 18:29:12.530,-0.707,-0.777,-0.582
4/26/2023 18:29:12.540,-0.742,-0.707,-0.59
4/26/2023 18:29:12.550,-0.727,-0.77,-0.605
4/26/2023 18:29:12.560,-0.66,-0.902,-0.59
4/26/2023 18:29:12.570,-0.574,-1.008,-0.609
4/26/2023 18:29:12.580,-0.492,-1.109,-0.648
4/26/2023 18:29:12.590,-0.441,-1.234,-0.668
4/26/2023 18:29:12.600,-0.406,-1.301,-0.676
4/26/2023 18:29:12.610,-0.355,-1.262,-0.688
4/26/2023 18:29:12.620,-0.305,-1.227,-0.672
4/26/2023 18:29:12.630,-0.293,-1.191,-0.645
4/26/2023 18:29:12.640,-0.266,-1.102,-0.555
4/26/2023 18:29:12.650,-0.242,-0.941,-0.492
4/26/2023 18:29:12.660,-0.207,-0.777,-0.34
4/26/2023 18:29:12.670,-0.184,-0.613,-0.23
4/26/2023 18:29:12.680,-0.172,-0.508,-0.168
4/26/2023 18:29:12.690,-0.168,-0.445,-0.121
4/26/2023 18:29:12.700,-0.188,-0.383,-0.145
4/26/2023 18:29:12.710,-0.211,-0.375,-0.164
4/26/2023 18:29:12.720,-0.207,-0.379,-0.148
4/26/2023 18:29:12.730,-0.262,-0.395,-0.188
4/26/2023 18:29:12.740,-0.273,-0.43,-0.191
4/26/2023 18:29:12.750,-0.281,-0.469,-0.207
4/26/2023 18:29:12.760,-0.277,-0.496,-0.211
4/26/2023 18:29:12.770,-0.262,-0.516,-0.191
4/26/2023 18:29:12.780,-0.246,-0.531,-0.191
4/26/2023 18:29:12.790,-0.215,-0.559,-0.18
4/26/2023 18:29:12.800,-0.18,-0.605,-0.156
4/26/2023 18:29:12.810,-0.152,-0.641,-0.152
4/26/2023 18:29:12.820,-0.133,-0.68,-0.145
4/26/2023 18:29:12.830,-0.105,-0.703,-0.133
4/26/2023 18:29:12.840,-0.078,-0.758,-0.133
4/26/2023 18:29:12.850,-0.047,-0.844,-0.184
4/26/2023 18:29:12.860,-0.055,-0.941,-0.293
4/26/2023 18:29:12.870,-0.066,-1.016,-0.469
4/26/2023 18:29:12.880,-0.098,-1,-0.648
4/26/2023 18:29:12.890,-0.254,-0.906,-0.688
4/26/2023 18:29:12.900,-0.461,-0.934,-0.57
4/26/2023 18:29:12.910,-0.621,-1.238,-0.5
4/26/2023 18:29:12.920,-0.594,-1.594,-0.5
4/26/2023 18:29:12.930,-0.484,-1.84,-0.438
4/26/2023 18:29:12.940,-0.426,-1.859,-0.453
4/26/2023 18:29:12.950,-0.363,-1.516,-0.773
4/26/2023 18:29:12.960,-0.145,-1.18,-0.82
4/26/2023 18:29:12.970,0.012,-1.141,-0.543
4/26/2023 18:29:12.980,-0.184,-1.063,-0.551
4/26/2023 18:29:12.990,-0.477,-0.883,-0.75
4/26/2023 18:29:13.000,-0.707,-0.914,-0.75
4/26/2023 18:29:13.010,-0.738,-1.047,-0.605
4/26/2023 18:29:13.020,-0.672,-1.016,-0.598
4/26/2023 18:29:13.030,-0.609,-0.934,-0.695
4/26/2023 18:29:13.040,-0.48,-0.82,-0.805
4/26/2023 18:29:13.050,-0.363,-0.813,-0.824
4/26/2023 18:29:13.060,-0.363,-0.93,-0.781
4/26/2023 18:29:13.070,-0.406,-0.941,-0.789
4/26/2023 18:29:13.080,-0.406,-0.891,-0.793
4/26/2023 18:29:13.090,-0.422,-0.852,-0.777
4/26/2023 18:29:13.100,-0.453,-0.844,-0.762
4/26/2023 18:29:13.110,-0.457,-0.891,-0.711
4/26/2023 18:29:13.120,-0.453,-0.945,-0.629
4/26/2023 18:29:13.130,-0.441,-0.934,-0.563
4/26/2023 18:29:13.140,-0.434,-0.895,-0.523
4/26/2023 18:29:13.150,-0.43,-0.863,-0.512
4/26/2023 18:29:13.160,-0.402,-0.816,-0.496
4/26/2023 18:29:13.170,-0.367,-0.758,-0.473
4/26/2023 18:29:13.180,-0.324,-0.672,-0.434
4/26/2023 18:29:13.190,-0.277,-0.59,-0.406
4/26/2023 18:29:13.200,-0.238,-0.527,-0.391
4/26/2023 18:29:13.210,-0.188,-0.48,-0.363
4/26/2023 18:29:13.220,-0.117,-0.453,-0.34
4/26/2023 18:29:13.230,-0.059,-0.434,-0.32
4/26/2023 18:29:13.240,-0.031,-0.434,-0.289
4/26/2023 18:29:13.250,-0.035,-0.441,-0.281
4/26/2023 18:29:13.260,-0.043,-0.484,-0.281
4/26/2023 18:29:13.270,-0.047,-0.504,-0.289
4/26/2023 18:29:13.280,-0.074,-0.504,-0.293
4/26/2023 18:29:13.290,-0.098,-0.492,-0.305
4/26/2023 18:29:13.300,-0.113,-0.504,-0.328
4/26/2023 18:29:13.310,-0.109,-0.543,-0.352
4/26/2023 18:29:13.320,-0.133,-0.609,-0.359
4/26/2023 18:29:13.330,-0.176,-0.707,-0.32
4/26/2023 18:29:13.340,-0.23,-0.805,-0.285
4/26/2023 18:29:13.350,-0.234,-0.871,-0.277
4/26/2023 18:29:13.360,-0.203,-0.941,-0.262
4/26/2023 18:29:13.370,-0.207,-1.063,-0.23
4/26/2023 18:29:13.380,-0.23,-1.164,-0.234
4/26/2023 18:29:13.390,-0.223,-1.199,-0.293
4/26/2023 18:29:13.400,-0.145,-1.199,-0.355
4/26/2023 18:29:13.410,0.004,-1.203,-0.387
4/26/2023 18:29:13.420,0.125,-1.262,-0.387
4/26/2023 18:29:13.430,0.18,-1.328,-0.391
4/26/2023 18:29:13.440,0.184,-1.395,-0.363
4/26/2023 18:29:13.450,0.086,-1.465,-0.297
4/26/2023 18:29:13.460,-0.16,-1.445,-0.324
4/26/2023 18:29:13.470,-0.398,-1.371,-0.582
4/26/2023 18:29:13.480,-0.449,-1.426,-0.703
4/26/2023 18:29:13.490,-0.324,-1.383,-0.633
4/26/2023 18:29:13.500,-0.258,-1.145,-0.68
4/26/2023 18:29:13.510,-0.277,-1.012,-0.727
4/26/2023 18:29:13.520,-0.352,-1.07,-0.637
4/26/2023 18:29:13.530,-0.441,-1.012,-0.52
4/26/2023 18:29:13.540,-0.57,-0.797,-0.48
4/26/2023 18:29:13.550,-0.703,-0.652,-0.496
4/26/2023 18:29:13.560,-0.77,-0.734,-0.504
4/26/2023 18:29:13.570,-0.719,-0.906,-0.543
4/26/2023 18:29:13.580,-0.637,-1.07,-0.621
4/26/2023 18:29:13.590,-0.543,-1.223,-0.676
4/26/2023 18:29:13.600,-0.445,-1.355,-0.688
4/26/2023 18:29:13.610,-0.371,-1.426,-0.684
4/26/2023 18:29:13.620,-0.32,-1.426,-0.68
4/26/2023 18:29:13.630,-0.293,-1.383,-0.66
4/26/2023 18:29:13.640,-0.281,-1.293,-0.633
4/26/2023 18:29:13.650,-0.238,-1.172,-0.551
4/26/2023 18:29:13.660,-0.215,-1.016,-0.461
4/26/2023 18:29:13.670,-0.199,-0.879,-0.344
4/26/2023 18:29:13.680,-0.215,-0.754,-0.266
4/26/2023 18:29:13.690,-0.227,-0.625,-0.203
4/26/2023 18:29:13.700,-0.215,-0.492,-0.164
4/26/2023 18:29:13.710,-0.207,-0.422,-0.125
4/26/2023 18:29:13.720,-0.223,-0.414,-0.145
4/26/2023 18:29:13.730,-0.215,-0.402,-0.156
4/26/2023 18:29:13.740,-0.207,-0.379,-0.164
4/26/2023 18:29:13.750,-0.195,-0.375,-0.176
4/26/2023 18:29:13.760,-0.195,-0.41,-0.18
4/26/2023 18:29:13.770,-0.188,-0.449,-0.176
4/26/2023 18:29:13.780,-0.188,-0.469,-0.172
4/26/2023 18:29:13.790,-0.191,-0.48,-0.152
4/26/2023 18:29:13.800,-0.191,-0.492,-0.145
4/26/2023 18:29:13.810,-0.184,-0.516,-0.137
4/26/2023 18:29:13.820,-0.184,-0.57,-0.125
4/26/2023 18:29:13.830,-0.172,-0.621,-0.109
4/26/2023 18:29:13.840,-0.152,-0.66,-0.113
4/26/2023 18:29:13.850,-0.129,-0.695,-0.125
4/26/2023 18:29:13.860,-0.121,-0.742,-0.18
4/26/2023 18:29:13.870,-0.129,-0.832,-0.297
4/26/2023 18:29:13.880,-0.129,-0.914,-0.438
4/26/2023 18:29:13.890,-0.164,-0.883,-0.609
4/26/2023 18:29:13.900,-0.301,-0.836,-0.648
4/26/2023 18:29:13.910,-0.492,-0.977,-0.52
4/26/2023 18:29:13.920,-0.652,-1.34,-0.488
4/26/2023 18:29:13.930,-0.684,-1.641,-0.547
4/26/2023 18:29:13.940,-0.605,-1.809,-0.566
4/26/2023 18:29:13.950,-0.566,-1.844,-0.746
4/26/2023 18:29:13.960,-0.547,-1.723,-0.891
4/26/2023 18:29:13.970,-0.258,-1.57,-0.59
4/26/2023 18:29:13.980,-0.02,-1.23,-0.496
4/26/2023 18:29:13.990,-0.074,-1.031,-0.574
4/26/2023 18:29:14.000,-0.309,-0.992,-0.609
4/26/2023 18:29:14.010,-0.527,-1.047,-0.512
4/26/2023 18:29:14.020,-0.672,-1.051,-0.527
4/26/2023 18:29:14.030,-0.688,-0.957,-0.629
4/26/2023 18:29:14.040,-0.625,-0.855,-0.707
4/26/2023 18:29:14.050,-0.559,-0.828,-0.738
4/26/2023 18:29:14.060,-0.496,-0.844,-0.793
4/26/2023 18:29:14.070,-0.449,-0.895,-0.855
4/26/2023 18:29:14.080,-0.402,-0.949,-0.902
4/26/2023 18:29:14.090,-0.348,-0.934,-0.898
4/26/2023 18:29:14.100,-0.336,-0.867,-0.84
4/26/2023 18:29:14.110,-0.367,-0.824,-0.773
4/26/2023 18:29:14.120,-0.387,-0.863,-0.672
4/26/2023 18:29:14.130,-0.383,-0.887,-0.531
4/26/2023 18:29:14.140,-0.402,-0.844,-0.43
4/26/2023 18:29:14.150,-0.461,-0.762,-0.426
4/26/2023 18:29:14.160,-0.5,-0.742,-0.453
4/26/2023 18:29:14.170,-0.473,-0.762,-0.477
4/26/2023 18:29:14.180,-0.422,-0.77,-0.484
4/26/2023 18:29:14.190,-0.359,-0.715,-0.477
4/26/2023 18:29:14.200,-0.293,-0.641,-0.461
4/26/2023 18:29:14.210,-0.219,-0.574,-0.441
4/26/2023 18:29:14.220,-0.133,-0.527,-0.41
4/26/2023 18:29:14.230,-0.047,-0.512,-0.348
4/26/2023 18:29:14.240,0.012,-0.488,-0.305
4/26/2023 18:29:14.250,0.02,-0.48,-0.281
4/26/2023 18:29:14.260,0.008,-0.484,-0.281
4/26/2023 18:29:14.270,-0.008,-0.504,-0.281
4/26/2023 18:29:14.280,-0.031,-0.516,-0.293
4/26/2023 18:29:14.290,-0.066,-0.516,-0.285
4/26/2023 18:29:14.300,-0.109,-0.52,-0.277
4/26/2023 18:29:14.310,-0.125,-0.52,-0.281
4/26/2023 18:29:14.320,-0.137,-0.535,-0.309
4/26/2023 18:29:14.330,-0.137,-0.559,-0.34
4/26/2023 18:29:14.340,-0.148,-0.617,-0.355
4/26/2023 18:29:14.350,-0.176,-0.723,-0.328
4/26/2023 18:29:14.360,-0.195,-0.832,-0.297
4/26/2023 18:29:14.370,-0.191,-0.922,-0.285
4/26/2023 18:29:14.380,-0.219,-1.02,-0.273
4/26/2023 18:29:14.390,-0.262,-1.113,-0.273
4/26/2023 18:29:14.400,-0.309,-1.219,-0.277
4/26/2023 18:29:14.410,-0.32,-1.262,-0.305
4/26/2023 18:29:14.420,-0.215,-1.207,-0.359
4/26/2023 18:29:14.430,-0.051,-1.227,-0.34
4/26/2023 18:29:14.440,0.086,-1.297,-0.293
4/26/2023 18:29:14.450,0.16,-1.363,-0.266
4/26/2023 18:29:14.460,0.125,-1.434,-0.234
4/26/2023 18:29:14.470,-0.039,-1.414,-0.383
4/26/2023 18:29:14.480,-0.246,-1.422,-0.66
4/26/2023 18:29:14.490,-0.344,-1.492,-0.754
4/26/2023 18:29:14.500,-0.309,-1.367,-0.711
4/26/2023 18:29:14.510,-0.324,-1.145,-0.766
4/26/2023 18:29:14.520,-0.402,-1.063,-0.773
4/26/2023 18:29:14.530,-0.438,-1.078,-0.648
4/26/2023 18:29:14.540,-0.516,-0.969,-0.551
4/26/2023 18:29:14.550,-0.695,-0.785,-0.551
4/26/2023 18:29:14.560,-0.828,-0.719,-0.535
4/26/2023 18:29:14.570,-0.836,-0.797,-0.543
4/26/2023 18:29:14.580,-0.734,-0.918,-0.555
4/26/2023 18:29:14.590,-0.621,-1.039,-0.59
4/26/2023 18:29:14.600,-0.504,-1.168,-0.645
4/26/2023 18:29:14.610,-0.383,-1.289,-0.684
4/26/2023 18:29:14.620,-0.32,-1.352,-0.715
4/26/2023 18:29:14.630,-0.309,-1.348,-0.723
4/26/2023 18:29:14.640,-0.301,-1.289,-0.723
4/26/2023 18:29:14.650,-0.289,-1.234,-0.715
4/26/2023 18:29:14.660,-0.242,-1.137,-0.652
4/26/2023 18:29:14.670,-0.281,-1.027,-0.492
4/26/2023 18:29:14.680,-0.25,-0.848,-0.359
4/26/2023 18:29:14.690,-0.227,-0.719,-0.266
4/26/2023 18:29:14.700,-0.215,-0.641,-0.219
4/26/2023 18:29:14.710,-0.223,-0.551,-0.191
4/26/2023 18:29:14.720,-0.234,-0.473,-0.195
4/26/2023 18:29:14.730,-0.238,-0.426,-0.199
4/26/2023 18:29:14.740,-0.23,-0.414,-0.195
4/26/2023 18:29:14.750,-0.219,-0.414,-0.195
4/26/2023 18:29:14.760,-0.223,-0.41,-0.203
4/26/2023 18:29:14.770,-0.215,-0.418,-0.191
4/26/2023 18:29:14.780,-0.195,-0.414,-0.168
4/26/2023 18:29:14.790,-0.195,-0.418,-0.156
4/26/2023 18:29:14.800,-0.195,-0.434,-0.141
4/26/2023 18:29:14.810,-0.195,-0.449,-0.129
4/26/2023 18:29:14.820,-0.207,-0.48,-0.121
4/26/2023 18:29:14.830,-0.219,-0.52,-0.113
4/26/2023 18:29:14.840,-0.219,-0.574,-0.098
4/26/2023 18:29:14.850,-0.199,-0.621,-0.086
4/26/2023 18:29:14.860,-0.172,-0.68,-0.098
4/26/2023 18:29:14.870,-0.145,-0.738,-0.125
4/26/2023 18:29:14.880,-0.148,-0.824,-0.23
4/26/2023 18:29:14.890,-0.125,-0.91,-0.383
4/26/2023 18:29:14.900,-0.117,-0.949,-0.555
4/26/2023 18:29:14.910,-0.234,-0.922,-0.672
4/26/2023 18:29:14.920,-0.387,-0.969,-0.621
4/26/2023 18:29:14.930,-0.563,-1.246,-0.566
4/26/2023 18:29:14.940,-0.641,-1.574,-0.578
4/26/2023 18:29:14.950,-0.555,-1.754,-0.582
4/26/2023 18:29:14.960,-0.547,-1.797,-0.762
4/26/2023 18:29:14.970,-0.648,-1.656,-0.996
4/26/2023 18:29:14.980,-0.398,-1.48,-0.637
4/26/2023 18:29:14.990,-0.117,-1.152,-0.453
4/26/2023 18:29:15.000,-0.191,-0.961,-0.621
4/26/2023 18:29:15.010,-0.348,-0.945,-0.711
4/26/2023 18:29:15.020,-0.496,-1.035,-0.582
4/26/2023 18:29:15.030,-0.66,-1.055,-0.543
4/26/2023 18:29:15.040,-0.684,-0.953,-0.59
4/26/2023 18:29:15.050,-0.613,-0.855,-0.66
4/26/2023 18:29:15.060,-0.523,-0.813,-0.723
4/26/2023 18:29:15.070,-0.449,-0.852,-0.762
4/26/2023 18:29:15.080,-0.426,-0.914,-0.824
4/26/2023 18:29:15.090,-0.41,-0.961,-0.891
4/26/2023 18:29:15.100,-0.391,-0.938,-0.91
4/26/2023 18:29:15.110,-0.402,-0.91,-0.863
4/26/2023 18:29:15.120,-0.43,-0.883,-0.801
4/26/2023 18:29:15.130,-0.438,-0.918,-0.723
4/26/2023 18:29:15.140,-0.41,-0.957,-0.598
4/26/2023 18:29:15.150,-0.391,-0.922,-0.488
4/26/2023 18:29:15.160,-0.406,-0.844,-0.445
4/26/2023 18:29:15.170,-0.426,-0.781,-0.441
4/26/2023 18:29:15.180,-0.406,-0.742,-0.445
4/26/2023 18:29:15.190,-0.371,-0.719,-0.445
4/26/2023 18:29:15.200,-0.332,-0.688,-0.43
4/26/2023 18:29:15.210,-0.273,-0.633,-0.418
4/26/2023 18:29:15.220,-0.211,-0.574,-0.41
4/26/2023 18:29:15.230,-0.145,-0.543,-0.398
4/26/2023 18:29:15.240,-0.066,-0.527,-0.363
4/26/2023 18:29:15.250,-0.016,-0.52,-0.344
4/26/2023 18:29:15.260,0.02,-0.523,-0.32
4/26/2023 18:29:15.270,0.039,-0.535,-0.305
4/26/2023 18:29:15.280,0.043,-0.531,-0.301
4/26/2023 18:29:15.290,0.016,-0.516,-0.289
4/26/2023 18:29:15.300,-0.039,-0.496,-0.277
4/26/2023 18:29:15.310,-0.094,-0.492,-0.262
4/26/2023 18:29:15.320,-0.129,-0.508,-0.27
4/26/2023 18:29:15.330,-0.113,-0.535,-0.301
4/26/2023 18:29:15.340,-0.086,-0.586,-0.344
4/26/2023 18:29:15.350,-0.082,-0.66,-0.355
4/26/2023 18:29:15.360,-0.105,-0.758,-0.336
4/26/2023 18:29:15.370,-0.133,-0.855,-0.309
4/26/2023 18:29:15.380,-0.137,-0.918,-0.301
4/26/2023 18:29:15.390,-0.148,-0.973,-0.285
4/26/2023 18:29:15.400,-0.211,-1.063,-0.254
4/26/2023 18:29:15.410,-0.285,-1.156,-0.238
4/26/2023 18:29:15.420,-0.309,-1.188,-0.293
4/26/2023 18:29:15.430,-0.238,-1.148,-0.375
4/26/2023 18:29:15.440,-0.086,-1.148,-0.414
4/26/2023 18:29:15.450,0.031,-1.234,-0.449
4/26/2023 18:29:15.460,0.113,-1.359,-0.473
4/26/2023 18:29:15.470,0.152,-1.445,-0.445
4/26/2023 18:29:15.480,0.051,-1.504,-0.359
4/26/2023 18:29:15.490,-0.172,-1.418,-0.465
4/26/2023 18:29:15.500,-0.305,-1.309,-0.719
4/26/2023 18:29:15.510,-0.293,-1.395,-0.684
4/26/2023 18:29:15.520,-0.262,-1.293,-0.613
4/26/2023 18:29:15.530,-0.234,-0.965,-0.664
4/26/2023 18:29:15.540,-0.332,-0.867,-0.66
4/26/2023 18:29:15.550,-0.441,-0.957,-0.516
4/26/2023 18:29:15.560,-0.539,-0.863,-0.426
4/26/2023 18:29:15.570,-0.648,-0.676,-0.449
4/26/2023 18:29:15.580,-0.73,-0.703,-0.469
4/26/2023 18:29:15.590,-0.73,-0.906,-0.547
4/26/2023 18:29:15.600,-0.645,-1.129,-0.641
4/26/2023 18:29:15.610,-0.563,-1.293,-0.73
4/26/2023 18:29:15.620,-0.48,-1.391,-0.766
4/26/2023 18:29:15.630,-0.383,-1.445,-0.75
4/26/2023 18:29:15.640,-0.32,-1.457,-0.719
4/26/2023 18:29:15.650,-0.309,-1.383,-0.684
4/26/2023 18:29:15.660,-0.309,-1.246,-0.656
4/26/2023 18:29:15.670,-0.297,-1.121,-0.578
4/26/2023 18:29:15.680,-0.285,-1.012,-0.484
4/26/2023 18:29:15.690,-0.289,-0.875,-0.406
4/26/2023 18:29:15.700,-0.301,-0.711,-0.355
4/26/2023 18:29:15.710,-0.289,-0.594,-0.297
4/26/2023 18:29:15.720,-0.266,-0.527,-0.227
4/26/2023 18:29:15.730,-0.242,-0.469,-0.211
4/26/2023 18:29:15.740,-0.203,-0.441,-0.172
4/26/2023 18:29:15.750,-0.207,-0.414,-0.195
4/26/2023 18:29:15.760,-0.188,-0.406,-0.18
4/26/2023 18:29:15.770,-0.191,-0.391,-0.172
4/26/2023 18:29:15.780,-0.199,-0.387,-0.164
4/26/2023 18:29:15.790,-0.188,-0.391,-0.148
4/26/2023 18:29:15.800,-0.16,-0.395,-0.125
4/26/2023 18:29:15.810,-0.168,-0.414,-0.125
4/26/2023 18:29:15.820,-0.172,-0.449,-0.117
4/26/2023 18:29:15.830,-0.16,-0.492,-0.117
4/26/2023 18:29:15.840,-0.164,-0.539,-0.129
4/26/2023 18:29:15.850,-0.164,-0.59,-0.137
4/26/2023 18:29:15.860,-0.152,-0.637,-0.141
4/26/2023 18:29:15.870,-0.121,-0.688,-0.164
4/26/2023 18:29:15.880,-0.109,-0.762,-0.207
4/26/2023 18:29:15.890,-0.121,-0.859,-0.313
4/26/2023 18:29:15.900,-0.133,-0.949,-0.449
4/26/2023 18:29:15.910,-0.164,-0.984,-0.633
4/26/2023 18:29:15.920,-0.324,-0.938,-0.719
4/26/2023 18:29:15.930,-0.535,-0.977,-0.605
4/26/2023 18:29:15.940,-0.707,-1.27,-0.531
4/26/2023 18:29:15.950,-0.684,-1.602,-0.512
4/26/2023 18:29:15.960,-0.547,-1.813,-0.461
4/26/2023 18:29:15.970,-0.402,-1.871,-0.344
4/26/2023 18:29:15.980,-0.27,-1.676,-0.398
4/26/2023 18:29:15.990,-0.117,-1.25,-0.668
4/26/2023 18:29:16.000,0.086,-1.051,-0.602
4/26/2023 18:29:16.010,-0.023,-1.039,-0.563
4/26/2023 18:29:16.020,-0.328,-0.965,-0.723
4/26/2023 18:29:16.030,-0.637,-0.902,-0.871
4/26/2023 18:29:16.040,-0.77,-1.031,-0.801
4/26/2023 18:29:16.050,-0.754,-1.109,-0.711
4/26/2023 18:29:16.060,-0.668,-1.082,-0.684
4/26/2023 18:29:16.070,-0.563,-0.898,-0.758
4/26/2023 18:29:16.080,-0.406,-0.75,-0.773
4/26/2023 18:29:16.090,-0.344,-0.816,-0.703
4/26/2023 18:29:16.100,-0.383,-0.898,-0.711
4/26/2023 18:29:16.110,-0.387,-0.902,-0.77
4/26/2023 18:29:16.120,-0.398,-0.879,-0.793
4/26/2023 18:29:16.130,-0.461,-0.844,-0.805
4/26/2023 18:29:16.140,-0.508,-0.863,-0.797
4/26/2023 18:29:16.150,-0.535,-0.949,-0.73
4/26/2023 18:29:16.160,-0.535,-0.98,-0.648
4/26/2023 18:29:16.170,-0.508,-0.961,-0.59
4/26/2023 18:29:16.180,-0.488,-0.922,-0.555
4/26/2023 18:29:16.190,-0.469,-0.875,-0.535
4/26/2023 18:29:16.200,-0.414,-0.801,-0.508
4/26/2023 18:29:16.210,-0.355,-0.719,-0.469
4/26/2023 18:29:16.220,-0.293,-0.633,-0.438
4/26/2023 18:29:16.230,-0.234,-0.574,-0.41
4/26/2023 18:29:16.240,-0.18,-0.52,-0.41
4/26/2023 18:29:16.250,-0.109,-0.473,-0.387
4/26/2023 18:29:16.260,-0.055,-0.449,-0.363
4/26/2023 18:29:16.270,-0.012,-0.453,-0.332
4/26/2023 18:29:16.280,-0.004,-0.477,-0.309
4/26/2023 18:29:16.290,-0.004,-0.488,-0.293
4/26/2023 18:29:16.300,-0.02,-0.504,-0.277
4/26/2023 18:29:16.310,-0.047,-0.508,-0.277
4/26/2023 18:29:16.320,-0.082,-0.496,-0.266
4/26/2023 18:29:16.330,-0.113,-0.484,-0.266
4/26/2023 18:29:16.340,-0.121,-0.496,-0.273
4/26/2023 18:29:16.350,-0.109,-0.527,-0.281
4/26/2023 18:29:16.360,-0.102,-0.574,-0.297
4/26/2023 18:29:16.370,-0.129,-0.684,-0.281
4/26/2023 18:29:16.380,-0.164,-0.809,-0.27
4/26/2023 18:29:16.390,-0.16,-0.902,-0.273
4/26/2023 18:29:16.400,-0.18,-0.996,-0.258
4/26/2023 18:29:16.410,-0.223,-1.098,-0.246
4/26/2023 18:29:16.420,-0.254,-1.188,-0.25
4/26/2023 18:29:16.430,-0.262,-1.234,-0.305
4/26/2023 18:29:16.440,-0.16,-1.199,-0.359
4/26/2023 18:29:16.450,-0.008,-1.23,-0.359
4/26/2023 18:29:16.460,0.105,-1.309,-0.348
4/26/2023 18:29:16.470,0.172,-1.387,-0.332
4/26/2023 18:29:16.480,0.121,-1.469,-0.285
4/26/2023 18:29:16.490,-0.066,-1.457,-0.395
4/26/2023 18:29:16.500,-0.301,-1.438,-0.617
4/26/2023 18:29:16.510,-0.391,-1.473,-0.656
4/26/2023 18:29:16.520,-0.34,-1.316,-0.633
4/26/2023 18:29:16.530,-0.324,-1.074,-0.758
4/26/2023 18:29:16.540,-0.379,-1.059,-0.781
4/26/2023 18:29:16.550,-0.418,-1.121,-0.66
4/26/2023 18:29:16.560,-0.512,-1,-0.586
4/26/2023 18:29:16.570,-0.688,-0.816,-0.555
4/26/2023 18:29:16.580,-0.844,-0.758,-0.531
4/26/2023 18:29:16.590,-0.871,-0.852,-0.559
4/26/2023 18:29:16.600,-0.758,-1.004,-0.59
4/26/2023 18:29:16.610,-0.613,-1.137,-0.645
4/26/2023 18:29:16.620,-0.449,-1.23,-0.676
4/26/2023 18:29:16.630,-0.34,-1.301,-0.668
4/26/2023 18:29:16.640,-0.301,-1.344,-0.668
4/26/2023 18:29:16.650,-0.301,-1.336,-0.68
4/26/2023 18:29:16.660,-0.266,-1.289,-0.684
4/26/2023 18:29:16.670,-0.219,-1.246,-0.652
4/26/2023 18:29:16.680,-0.223,-1.156,-0.621
4/26/2023 18:29:16.690,-0.223,-1.012,-0.52
4/26/2023 18:29:16.700,-0.23,-0.84,-0.402
4/26/2023 18:29:16.710,-0.246,-0.695,-0.305
4/26/2023 18:29:16.720,-0.277,-0.598,-0.254
4/26/2023 18:29:16.730,-0.289,-0.516,-0.223
4/26/2023 18:29:16.740,-0.281,-0.445,-0.195
4/26/2023 18:29:16.750,-0.277,-0.406,-0.172
4/26/2023 18:29:16.760,-0.277,-0.391,-0.172
4/26/2023 18:29:16.770,-0.262,-0.391,-0.156
4/26/2023 18:29:16.780,-0.238,-0.391,-0.164
4/26/2023 18:29:16.790,-0.23,-0.391,-0.16
4/26/2023 18:29:16.800,-0.219,-0.406,-0.145
4/26/2023 18:29:16.810,-0.199,-0.41,-0.125
4/26/2023 18:29:16.820,-0.199,-0.426,-0.109
4/26/2023 18:29:16.830,-0.184,-0.438,-0.105
4/26/2023 18:29:16.840,-0.184,-0.461,-0.117
4/26/2023 18:29:16.850,-0.18,-0.512,-0.121
4/26/2023 18:29:16.860,-0.168,-0.563,-0.129
4/26/2023 18:29:16.870,-0.141,-0.598,-0.129
4/26/2023 18:29:16.880,-0.113,-0.645,-0.152
4/26/2023 18:29:16.890,-0.133,-0.742,-0.242
4/26/2023 18:29:16.900,-0.152,-0.863,-0.379
4/26/2023 18:29:16.910,-0.156,-0.938,-0.527
4/26/2023 18:29:16.920,-0.258,-0.945,-0.66
4/26/2023 18:29:16.930,-0.418,-0.961,-0.637
4/26/2023 18:29:16.940,-0.578,-1.156,-0.547
4/26/2023 18:29:16.950,-0.648,-1.465,-0.52
4/26/2023 18:29:16.960,-0.543,-1.668,-0.473
4/26/2023 18:29:16.970,-0.41,-1.781,-0.375
4/26/2023 18:29:16.980,-0.305,-1.723,-0.371
4/26/2023 18:29:16.990,-0.223,-1.449,-0.656
4/26/2023 18:29:17.000,-0.063,-1.211,-0.742
4/26/2023 18:29:17.010,0.023,-1.156,-0.566
4/26/2023 18:29:17.020,-0.137,-1.145,-0.555
4/26/2023 18:29:17.030,-0.449,-1.074,-0.73
4/26/2023 18:29:17.040,-0.68,-1.043,-0.777
4/26/2023 18:29:17.050,-0.777,-1.16,-0.633
4/26/2023 18:29:17.060,-0.77,-1.07,-0.617
4/26/2023 18:29:17.070,-0.637,-0.891,-0.645
4/26/2023 18:29:17.080,-0.488,-0.754,-0.688
4/26/2023 18:29:17.090,-0.383,-0.715,-0.703
4/26/2023 18:29:17.100,-0.406,-0.844,-0.707
4/26/2023 18:29:17.110,-0.449,-0.922,-0.777
4/26/2023 18:29:17.120,-0.438,-0.906,-0.828
4/26/2023 18:29:17.130,-0.43,-0.855,-0.801
4/26/2023 18:29:17.140,-0.469,-0.836,-0.773
4/26/2023 18:29:17.150,-0.473,-0.895,-0.715
4/26/2023 18:29:17.160,-0.465,-0.965,-0.617
4/26/2023 18:29:17.170,-0.441,-0.949,-0.535
4/26/2023 18:29:17.180,-0.43,-0.898,-0.484
4/26/2023 18:29:17.190,-0.414,-0.855,-0.469
4/26/2023 18:29:17.200,-0.379,-0.832,-0.469
4/26/2023 18:29:17.210,-0.324,-0.797,-0.473
4/26/2023 18:29:17.220,-0.27,-0.75,-0.461
4/26/2023 18:29:17.230,-0.227,-0.676,-0.441
4/26/2023 18:29:17.240,-0.184,-0.598,-0.426
4/26/2023 18:29:17.250,-0.145,-0.52,-0.379
4/26/2023 18:29:17.260,-0.098,-0.469,-0.344
4/26/2023 18:29:17.270,-0.039,-0.445,-0.305
4/26/2023 18:29:17.280,-0.031,-0.441,-0.297
4/26/2023 18:29:17.290,-0.039,-0.461,-0.289
4/26/2023 18:29:17.300,-0.047,-0.504,-0.285
4/26/2023 18:29:17.310,-0.066,-0.539,-0.285
4/26/2023 18:29:17.320,-0.078,-0.547,-0.277
4/26/2023 18:29:17.330,-0.109,-0.559,-0.277
4/26/2023 18:29:17.340,-0.125,-0.578,-0.277
4/26/2023 18:29:17.350,-0.121,-0.598,-0.289
4/26/2023 18:29:17.360,-0.117,-0.613,-0.309
4/26/2023 18:29:17.370,-0.121,-0.672,-0.293
4/26/2023 18:29:17.380,-0.133,-0.762,-0.266
4/26/2023 18:29:17.390,-0.156,-0.848,-0.234
4/26/2023 18:29:17.400,-0.164,-0.898,-0.234
4/26/2023 18:29:17.410,-0.184,-0.953,-0.234
4/26/2023 18:29:17.420,-0.238,-1.039,-0.258
4/26/2023 18:29:17.430,-0.285,-1.117,-0.285
4/26/2023 18:29:17.440,-0.313,-1.16,-0.344
4/26/2023 18:29:17.450,-0.254,-1.145,-0.406
4/26/2023 18:29:17.460,-0.133,-1.168,-0.422
4/26/2023 18:29:17.470,-0.031,-1.25,-0.422
4/26/2023 18:29:17.480,0.027,-1.344,-0.391
4/26/2023 18:29:17.490,0.035,-1.43,-0.344
4/26/2023 18:29:17.500,-0.031,-1.484,-0.285
4/26/2023 18:29:17.510,-0.184,-1.422,-0.273
4/26/2023 18:29:17.520,-0.328,-1.27,-0.531
4/26/2023 18:29:17.530,-0.301,-1.32,-0.723
4/26/2023 18:29:17.540,-0.215,-1.383,-0.656
4/26/2023 18:29:17.550,-0.195,-1.125,-0.621
4/26/2023 18:29:17.560,-0.258,-0.879,-0.676
4/26/2023 18:29:17.570,-0.387,-0.941,-0.617
4/26/2023 18:29:17.580,-0.477,-0.961,-0.492
4/26/2023 18:29:17.590,-0.598,-0.793,-0.453
4/26/2023 18:29:17.600,-0.695,-0.664,-0.438
4/26/2023 18:29:17.610,-0.723,-0.742,-0.441
4/26/2023 18:29:17.620,-0.672,-0.934,-0.5
4/26/2023 18:29:17.630,-0.582,-1.109,-0.582
4/26/2023 18:29:17.640,-0.508,-1.258,-0.645
4/26/2023 18:29:17.650,-0.422,-1.352,-0.684
4/26/2023 18:29:17.660,-0.359,-1.391,-0.719
4/26/2023 18:29:17.670,-0.348,-1.398,-0.75
4/26/2023 18:29:17.680,-0.359,-1.379,-0.746
4/26/2023 18:29:17.690,-0.328,-1.309,-0.691
4/26/2023 18:29:17.700,-0.309,-1.195,-0.621
4/26/2023 18:29:17.710,-0.301,-1.055,-0.527
4/26/2023 18:29:17.720,-0.285,-0.918,-0.414
4/26/2023 18:29:17.730,-0.277,-0.809,-0.316
4/26/2023 18:29:17.740,-0.258,-0.684,-0.258
4/26/2023 18:29:17.750,-0.246,-0.578,-0.215
4/26/2023 18:29:17.760,-0.234,-0.492,-0.211
4/26/2023 18:29:17.770,-0.211,-0.453,-0.195
4/26/2023 18:29:17.780,-0.168,-0.441,-0.18
4/26/2023 18:29:17.790,-0.133,-0.426,-0.168
4/26/2023 18:29:17.800,-0.121,-0.406,-0.168
4/26/2023 18:29:17.810,-0.102,-0.395,-0.152
4/26/2023 18:29:17.820,-0.098,-0.391,-0.129
4/26/2023 18:29:17.830,-0.113,-0.398,-0.113
4/26/2023 18:29:17.840,-0.145,-0.418,-0.102
4/26/2023 18:29:17.850,-0.176,-0.453,-0.082
4/26/2023 18:29:17.860,-0.211,-0.484,-0.082
4/26/2023 18:29:17.870,-0.242,-0.52,-0.09
4/26/2023 18:29:17.880,-0.242,-0.551,-0.098
4/26/2023 18:29:17.890,-0.219,-0.59,-0.109
4/26/2023 18:29:17.900,-0.176,-0.648,-0.137
4/26/2023 18:29:17.910,-0.156,-0.703,-0.223
4/26/2023 18:29:17.920,-0.129,-0.777,-0.348
4/26/2023 18:29:17.930,-0.105,-0.836,-0.496
4/26/2023 18:29:17.940,-0.16,-0.867,-0.605
4/26/2023 18:29:17.950,-0.328,-0.918,-0.586
4/26/2023 18:29:17.960,-0.52,-1.168,-0.539
4/26/2023 18:29:17.970,-0.598,-1.566,-0.516
4/26/2023 18:29:17.980,-0.523,-1.848,-0.508
4/26/2023 18:29:17.990,-0.426,-1.945,-0.434
4/26/2023 18:29:18.000,-0.348,-1.781,-0.477
4/26/2023 18:29:18.010,-0.223,-1.348,-0.727
4/26/2023 18:29:18.020,-0.043,-1.102,-0.648
4/26/2023 18:29:18.030,-0.039,-1.055,-0.543
4/26/2023 18:29:18.040,-0.27,-0.992,-0.691
4/26/2023 18:29:18.050,-0.559,-0.957,-0.852
4/26/2023 18:29:18.060,-0.703,-1.094,-0.75
4/26/2023 18:29:18.070,-0.754,-1.207,-0.617
4/26/2023 18:29:18.080,-0.68,-1.141,-0.605
4/26/2023 18:29:18.090,-0.551,-0.965,-0.695
4/26/2023 18:29:18.100,-0.371,-0.781,-0.742
4/26/2023 18:29:18.110,-0.305,-0.797,-0.688
4/26/2023 18:29:18.120,-0.352,-0.871,-0.703
4/26/2023 18:29:18.130,-0.379,-0.871,-0.801
4/26/2023 18:29:18.140,-0.387,-0.875,-0.848
4/26/2023 18:29:18.150,-0.449,-0.844,-0.855
4/26/2023 18:29:18.160,-0.523,-0.859,-0.836
4/26/2023 18:29:18.170,-0.559,-0.945,-0.746
4/26/2023 18:29:18.180,-0.551,-0.996,-0.645
4/26/2023 18:29:18.190,-0.516,-0.973,-0.559
4/26/2023 18:29:18.200,-0.477,-0.926,-0.512
4/26/2023 18:29:18.210,-0.449,-0.879,-0.492
4/26/2023 18:29:18.220,-0.426,-0.824,-0.477
4/26/2023 18:29:18.230,-0.383,-0.75,-0.457
4/26/2023 18:29:18.240,-0.324,-0.68,-0.43
4/26/2023 18:29:18.250,-0.242,-0.594,-0.41
4/26/2023 18:29:18.260,-0.172,-0.523,-0.41
4/26/2023 18:29:18.270,-0.098,-0.504,-0.387
4/26/2023 18:29:18.280,-0.031,-0.504,-0.371
4/26/2023 18:29:18.290,0,-0.504,-0.34
4/26/2023 18:29:18.300,0.031,-0.508,-0.305
4/26/2023 18:29:18.310,0.02,-0.535,-0.285
4/26/2023 18:29:18.320,0,-0.551,-0.262
4/26/2023 18:29:18.330,-0.035,-0.52,-0.258
4/26/2023 18:29:18.340,-0.094,-0.477,-0.254
4/26/2023 18:29:18.350,-0.137,-0.477,-0.25
4/26/2023 18:29:18.360,-0.16,-0.496,-0.27
4/26/2023 18:29:18.370,-0.137,-0.52,-0.309
4/26/2023 18:29:18.380,-0.105,-0.555,-0.348
4/26/2023 18:29:18.390,-0.102,-0.621,-0.348
4/26/2023 18:29:18.400,-0.109,-0.719,-0.328
4/26/2023 18:29:18.410,-0.121,-0.836,-0.324
4/26/2023 18:29:18.420,-0.117,-0.938,-0.34
4/26/2023 18:29:18.430,-0.141,-1.039,-0.332
4/26/2023 18:29:18.440,-0.188,-1.129,-0.316
4/26/2023 18:29:18.450,-0.23,-1.188,-0.297
4/26/2023 18:29:18.460,-0.246,-1.195,-0.332
4/26/2023 18:29:18.470,-0.168,-1.156,-0.379
4/26/2023 18:29:18.480,-0.012,-1.168,-0.375
4/26/2023 18:29:18.490,0.098,-1.238,-0.352
4/26/2023 18:29:18.500,0.156,-1.313,-0.316
4/26/2023 18:29:18.510,0.102,-1.395,-0.266
4/26/2023 18:29:18.520,-0.098,-1.387,-0.344
4/26/2023 18:29:18.530,-0.324,-1.336,-0.621
4/26/2023 18:29:18.540,-0.418,-1.449,-0.703
4/26/2023 18:29:18.550,-0.352,-1.402,-0.684
4/26/2023 18:29:18.560,-0.301,-1.137,-0.781
4/26/2023 18:29:18.570,-0.32,-0.996,-0.84
4/26/2023 18:29:18.580,-0.387,-1.066,-0.719
4/26/2023 18:29:18.590,-0.477,-1.02,-0.594
4/26/2023 18:29:18.600,-0.621,-0.813,-0.555
4/26/2023 18:29:18.610,-0.762,-0.695,-0.566
4/26/2023 18:29:18.620,-0.805,-0.797,-0.598
4/26/2023 18:29:18.630,-0.727,-0.996,-0.605
4/26/2023 18:29:18.640,-0.629,-1.152,-0.66
4/26/2023 18:29:18.650,-0.535,-1.262,-0.738
4/26/2023 18:29:18.660,-0.469,-1.348,-0.773
4/26/2023 18:29:18.670,-0.418,-1.391,-0.773
4/26/2023 18:29:18.680,-0.363,-1.355,-0.762
4/26/2023 18:29:18.690,-0.313,-1.285,-0.742
4/26/2023 18:29:18.700,-0.262,-1.219,-0.688
4/26/2023 18:29:18.710,-0.234,-1.145,-0.605
4/26/2023 18:29:18.720,-0.215,-1.012,-0.504
4/26/2023 18:29:18.730,-0.215,-0.848,-0.391
4/26/2023 18:29:18.740,-0.227,-0.691,-0.297
4/26/2023 18:29:18.750,-0.242,-0.566,-0.238
4/26/2023 18:29:18.760,-0.262,-0.461,-0.223
4/26/2023 18:29:18.770,-0.258,-0.406,-0.215
4/26/2023 18:29:18.780,-0.242,-0.406,-0.195
4/26/2023 18:29:18.790,-0.234,-0.422,-0.184
4/26/2023 18:29:18.800,-0.234,-0.418,-0.188
4/26/2023 18:29:18.810,-0.227,-0.414,-0.195
4/26/2023 18:29:18.820,-0.219,-0.426,-0.195
4/26/2023 18:29:18.830,-0.219,-0.445,-0.188
4/26/2023 18:29:18.840,-0.211,-0.461,-0.16
4/26/2023 18:29:18.850,-0.207,-0.469,-0.145
4/26/2023 18:29:18.860,-0.207,-0.48,-0.125
4/26/2023 18:29:18.870,-0.195,-0.496,-0.121
4/26/2023 18:29:18.880,-0.199,-0.527,-0.125
4/26/2023 18:29:18.890,-0.188,-0.551,-0.133
4/26/2023 18:29:18.900,-0.152,-0.578,-0.133
4/26/2023 18:29:18.910,-0.133,-0.625,-0.148
4/26/2023 18:29:18.920,-0.133,-0.699,-0.242
4/26/2023 18:29:18.930,-0.105,-0.785,-0.363
4/26/2023 18:29:18.940,-0.129,-0.836,-0.523
4/26/2023 18:29:18.950,-0.199,-0.832,-0.617
4/26/2023 18:29:18.960,-0.355,-0.84,-0.609
4/26/2023 18:29:18.970,-0.543,-1,-0.582
4/26/2023 18:29:18.980,-0.637,-1.352,-0.566
4/26/2023 18:29:18.990,-0.594,-1.656,-0.547
4/26/2023 18:29:19.000,-0.5,-1.785,-0.48
4/26/2023 18:29:19.010,-0.348,-1.777,-0.34
4/26/2023 18:29:19.020,-0.188,-1.652,-0.254
4/26/2023 18:29:19.030,-0.035,-1.297,-0.523
4/26/2023 18:29:19.040,0.059,-1.008,-0.766
4/26/2023 18:29:19.050,-0.016,-1.039,-0.684
4/26/2023 18:29:19.060,-0.238,-1.098,-0.641
4/26/2023 18:29:19.070,-0.578,-1.012,-0.805
4/26/2023 18:29:19.080,-0.82,-0.941,-0.906
4/26/2023 18:29:19.090,-0.871,-1.02,-0.801
4/26/2023 18:29:19.100,-0.836,-0.988,-0.773
4/26/2023 18:29:19.110,-0.738,-0.898,-0.785
4/26/2023 18:29:19.120,-0.578,-0.816,-0.785
4/26/2023 18:29:19.130,-0.391,-0.805,-0.703
4/26/2023 18:29:19.140,-0.332,-0.824,-0.676
4/26/2023 18:29:19.150,-0.309,-0.832,-0.719
4/26/2023 18:29:19.160,-0.266,-0.848,-0.75
4/26/2023 18:29:19.170,-0.277,-0.836,-0.754
4/26/2023 18:29:19.180,-0.336,-0.824,-0.75
4/26/2023 18:29:19.190,-0.363,-0.902,-0.691
4/26/2023 18:29:19.200,-0.398,-0.949,-0.605
4/26/2023 18:29:19.210,-0.441,-0.93,-0.559
4/26/2023 18:29:19.220,-0.453,-0.898,-0.539
4/26/2023 18:29:19.230,-0.445,-0.875,-0.535
4/26/2023 18:29:19.240,-0.418,-0.828,-0.523
4/26/2023 18:29:19.250,-0.359,-0.758,-0.484
4/26/2023 18:29:19.260,-0.285,-0.668,-0.441
4/26/2023 18:29:19.270,-0.234,-0.602,-0.406
4/26/2023 18:29:19.280,-0.191,-0.547,-0.398
4/26/2023 18:29:19.290,-0.137,-0.5,-0.395
4/26/2023 18:29:19.300,-0.078,-0.484,-0.363
4/26/2023 18:29:19.310,-0.039,-0.473,-0.332
4/26/2023 18:29:19.320,-0.035,-0.469,-0.316
4/26/2023 18:29:19.330,-0.039,-0.488,-0.297
4/26/2023 18:29:19.340,-0.055,-0.52,-0.293
4/26/2023 18:29:19.350,-0.074,-0.527,-0.297
4/26/2023 18:29:19.360,-0.109,-0.531,-0.309
4/26/2023 18:29:19.370,-0.121,-0.531,-0.313
4/26/2023 18:29:19.380,-0.129,-0.551,-0.32
4/26/2023 18:29:19.390,-0.125,-0.566,-0.336
4/26/2023 18:29:19.400,-0.125,-0.594,-0.352
4/26/2023 18:29:19.410,-0.145,-0.676,-0.324
4/26/2023 18:29:19.420,-0.191,-0.77,-0.277
4/26/2023 18:29:19.430,-0.211,-0.828,-0.262
4/26/2023 18:29:19.440,-0.211,-0.883,-0.27
4/26/2023 18:29:19.450,-0.25,-1,-0.262
4/26/2023 18:29:19.460,-0.297,-1.113,-0.273
4/26/2023 18:29:19.470,-0.305,-1.184,-0.309
4/26/2023 18:29:19.480,-0.246,-1.195,-0.359
4/26/2023 18:29:19.490,-0.102,-1.176,-0.387
4/26/2023 18:29:19.500,0.023,-1.238,-0.387
4/26/2023 18:29:19.510,0.113,-1.324,-0.371
4/26/2023 18:29:19.520,0.105,-1.391,-0.34
4/26/2023 18:29:19.530,-0.004,-1.391,-0.449
4/26/2023 18:29:19.540,-0.156,-1.43,-0.637
4/26/2023 18:29:19.550,-0.266,-1.512,-0.625
4/26/2023 18:29:19.560,-0.246,-1.344,-0.625
4/26/2023 18:29:19.570,-0.246,-1.117,-0.77
4/26/2023 18:29:19.580,-0.305,-1.133,-0.773
4/26/2023 18:29:19.590,-0.332,-1.141,-0.688
4/26/2023 18:29:19.600,-0.477,-1.039,-0.625
4/26/2023 18:29:19.610,-0.734,-0.898,-0.617
4/26/2023 18:29:19.620,-0.941,-0.813,-0.707
4/26/2023 18:29:19.630,-0.988,-0.895,-0.723
4/26/2023 18:29:19.640,-0.914,-1.051,-0.641
4/26/2023 18:29:19.650,-0.785,-1.121,-0.645
4/26/2023 18:29:19.660,-0.617,-1.18,-0.676
4/26/2023 18:29:19.670,-0.504,-1.277,-0.684
4/26/2023 18:29:19.680,-0.438,-1.328,-0.684
4/26/2023 18:29:19.690,-0.363,-1.273,-0.684
4/26/2023 18:29:19.700,-0.273,-1.191,-0.676
4/26/2023 18:29:19.710,-0.188,-1.113,-0.648
4/26/2023 18:29:19.720,-0.117,-1.012,-0.613
4/26/2023 18:29:19.730,-0.172,-0.898,-0.492
4/26/2023 18:29:19.740,-0.148,-0.766,-0.348
4/26/2023 18:29:19.750,-0.188,-0.629,-0.281
4/26/2023 18:29:19.760,-0.219,-0.551,-0.207
4/26/2023 18:29:19.770,-0.238,-0.508,-0.172
4/26/2023 18:29:19.780,-0.27,-0.477,-0.152
4/26/2023 18:29:19.790,-0.316,-0.438,-0.164
4/26/2023 18:29:19.800,-0.352,-0.398,-0.191
4/26/2023 18:29:19.810,-0.355,-0.398,-0.184
4/26/2023 18:29:19.820,-0.352,-0.422,-0.18
4/26/2023 18:29:19.830,-0.324,-0.441,-0.191
4/26/2023 18:29:19.840,-0.281,-0.457,-0.188
4/26/2023 18:29:19.850,-0.219,-0.469,-0.176
4/26/2023 18:29:19.860,-0.164,-0.488,-0.16
4/26/2023 18:29:19.870,-0.117,-0.527,-0.148
4/26/2023 18:29:19.880,-0.09,-0.57,-0.141
4/26/2023 18:29:19.890,-0.09,-0.613,-0.121
4/26/2023 18:29:19.900,-0.098,-0.668,-0.109
4/26/2023 18:29:19.910,-0.102,-0.707,-0.105
4/26/2023 18:29:19.920,-0.105,-0.75,-0.109
4/26/2023 18:29:19.930,-0.105,-0.813,-0.133
4/26/2023 18:29:19.940,-0.145,-0.891,-0.23
4/26/2023 18:29:19.950,-0.164,-0.949,-0.367
4/26/2023 18:29:19.960,-0.184,-0.945,-0.531
4/26/2023 18:29:19.970,-0.242,-0.895,-0.664
4/26/2023 18:29:19.980,-0.43,-0.887,-0.621
4/26/2023 18:29:19.990,-0.598,-1.078,-0.547
4/26/2023 18:29:20.000,-0.66,-1.434,-0.531
4/26/2023 18:29:20.010,-0.563,-1.703,-0.496
4/26/2023 18:29:20.020,-0.527,-1.805,-0.633
4/26/2023 18:29:20.030,-0.598,-1.652,-0.934
4/26/2023 18:29:20.040,-0.406,-1.465,-0.754
4/26/2023 18:29:20.050,-0.113,-1.23,-0.523
4/26/2023 18:29:20.060,-0.227,-0.969,-0.703
4/26/2023 18:29:20.070,-0.434,-0.855,-0.859
4/26/2023 18:29:20.080,-0.547,-0.969,-0.699
4/26/2023 18:29:20.090,-0.641,-1.102,-0.543
4/26/2023 18:29:20.100,-0.652,-1.035,-0.543
4/26/2023 18:29:20.110,-0.578,-0.855,-0.656
4/26/2023 18:29:20.120,-0.465,-0.75,-0.746
4/26/2023 18:29:20.130,-0.379,-0.816,-0.762
4/26/2023 18:29:20.140,-0.359,-0.906,-0.781
4/26/2023 18:29:20.150,-0.375,-0.922,-0.848
4/26/2023 18:29:20.160,-0.379,-0.906,-0.879
4/26/2023 18:29:20.170,-0.434,-0.879,-0.875
4/26/2023 18:29:20.180,-0.5,-0.871,-0.859
4/26/2023 18:29:20.190,-0.543,-0.934,-0.781
4/26/2023 18:29:20.200,-0.539,-0.953,-0.648
4/26/2023 18:29:20.210,-0.52,-0.902,-0.535
4/26/2023 18:29:20.220,-0.496,-0.824,-0.477
4/26/2023 18:29:20.230,-0.469,-0.777,-0.453
4/26/2023 18:29:20.240,-0.418,-0.758,-0.465
4/26/2023 18:29:20.250,-0.348,-0.734,-0.457
4/26/2023 18:29:20.260,-0.273,-0.672,-0.438
4/26/2023 18:29:20.270,-0.219,-0.598,-0.422
4/26/2023 18:29:20.280,-0.164,-0.555,-0.418
4/26/2023 18:29:20.290,-0.102,-0.535,-0.406
4/26/2023 18:29:20.300,-0.055,-0.531,-0.371
4/26/2023 18:29:20.310,-0.016,-0.52,-0.324
4/26/2023 18:29:20.320,0.004,-0.508,-0.293
4/26/2023 18:29:20.330,-0.016,-0.508,-0.289
4/26/2023 18:29:20.340,-0.051,-0.531,-0.293
4/26/2023 18:29:20.350,-0.09,-0.535,-0.289
4/26/2023 18:29:20.360,-0.121,-0.508,-0.285
4/26/2023 18:29:20.370,-0.145,-0.469,-0.293
4/26/2023 18:29:20.380,-0.16,-0.457,-0.301
4/26/2023 18:29:20.390,-0.148,-0.492,-0.313
4/26/2023 18:29:20.400,-0.125,-0.539,-0.332
4/26/2023 18:29:20.410,-0.113,-0.605,-0.344
4/26/2023 18:29:20.420,-0.113,-0.707,-0.324
4/26/2023 18:29:20.430,-0.113,-0.801,-0.305
4/26/2023 18:29:20.440,-0.094,-0.875,-0.309
4/26/2023 18:29:20.450,-0.082,-0.977,-0.305
4/26/2023 18:29:20.460,-0.145,-1.141,-0.301
4/26/2023 18:29:20.470,-0.238,-1.27,-0.316
4/26/2023 18:29:20.480,-0.289,-1.297,-0.363
4/26/2023 18:29:20.490,-0.254,-1.223,-0.418
4/26/2023 18:29:20.500,-0.137,-1.168,-0.422
4/26/2023 18:29:20.510,0,-1.207,-0.391
4/26/2023 18:29:20.520,0.098,-1.27,-0.379
4/26/2023 18:29:20.530,0.121,-1.316,-0.352
4/26/2023 18:29:20.540,0.02,-1.367,-0.336
4/26/2023 18:29:20.550,-0.133,-1.332,-0.52
4/26/2023 18:29:20.560,-0.27,-1.387,-0.641
4/26/2023 18:29:20.570,-0.289,-1.383,-0.59
4/26/2023 18:29:20.580,-0.258,-1.152,-0.613
4/26/2023 18:29:20.590,-0.262,-0.957,-0.734
4/26/2023 18:29:20.600,-0.305,-1.012,-0.707
4/26/2023 18:29:20.610,-0.344,-1.055,-0.578
4/26/2023 18:29:20.620,-0.473,-0.91,-0.512
4/26/2023 18:29:20.630,-0.691,-0.754,-0.547
4/26/2023 18:29:20.640,-0.859,-0.758,-0.605
4/26/2023 18:29:20.650,-0.859,-0.922,-0.613
4/26/2023 18:29:20.660,-0.777,-1.117,-0.609
4/26/2023 18:29:20.670,-0.68,-1.25,-0.688
4/26/2023 18:29:20.680,-0.578,-1.344,-0.77
4/26/2023 18:29:20.690,-0.504,-1.422,-0.793
4/26/2023 18:29:20.700,-0.43,-1.43,-0.777
4/26/2023 18:29:20.710,-0.355,-1.363,-0.746
4/26/2023 18:29:20.720,-0.309,-1.262,-0.715
4/26/2023 18:29:20.730,-0.238,-1.148,-0.668
4/26/2023 18:29:20.740,-0.211,-0.996,-0.539
4/26/2023 18:29:20.750,-0.23,-0.863,-0.387
4/26/2023 18:29:20.760,-0.203,-0.707,-0.336
4/26/2023 18:29:20.770,-0.191,-0.586,-0.273
4/26/2023 18:29:20.780,-0.223,-0.504,-0.25
4/26/2023 18:29:20.790,-0.207,-0.453,-0.191
4/26/2023 18:29:20.800,-0.203,-0.441,-0.168
4/26/2023 18:29:20.810,-0.238,-0.438,-0.191
4/26/2023 18:29:20.820,-0.238,-0.418,-0.18
4/26/2023 18:29:20.830,-0.234,-0.379,-0.172
4/26/2023 18:29:20.840,-0.227,-0.363,-0.16
4/26/2023 18:29:20.850,-0.207,-0.359,-0.137
4/26/2023 18:29:20.860,-0.184,-0.359,-0.105
4/26/2023 18:29:20.870,-0.176,-0.375,-0.086
4/26/2023 18:29:20.880,-0.176,-0.398,-0.09
4/26/2023 18:29:20.890,-0.176,-0.449,-0.113
4/26/2023 18:29:20.900,-0.188,-0.504,-0.137
4/26/2023 18:29:20.910,-0.195,-0.551,-0.141
4/26/2023 18:29:20.920,-0.18,-0.594,-0.148
4/26/2023 18:29:20.930,-0.152,-0.645,-0.164
4/26/2023 18:29:20.940,-0.121,-0.715,-0.207
4/26/2023 18:29:20.950,-0.105,-0.832,-0.313
4/26/2023 18:29:20.960,-0.098,-0.953,-0.43
4/26/2023 18:29:20.970,-0.105,-1.012,-0.586
4/26/2023 18:29:20.980,-0.176,-0.973,-0.672
4/26/2023 18:29:20.990,-0.359,-0.98,-0.625
4/26/2023 18:29:21.000,-0.551,-1.184,-0.566
4/26/2023 18:29:21.010,-0.629,-1.465,-0.57
4/26/2023 18:29:21.020,-0.57,-1.672,-0.508
4/26/2023 18:29:21.030,-0.422,-1.781,-0.379
4/26/2023 18:29:21.040,-0.301,-1.684,-0.438
4/26/2023 18:29:21.050,-0.246,-1.355,-0.754
4/26/2023 18:29:21.060,-0.109,-1.148,-0.742
4/26/2023 18:29:21.070,-0.063,-1.141,-0.605
4/26/2023 18:29:21.080,-0.258,-1.063,-0.719
4/26/2023 18:29:21.090,-0.566,-0.945,-0.875
4/26/2023 18:29:21.100,-0.742,-1,-0.828
4/26/2023 18:29:21.110,-0.758,-1.066,-0.719
4/26/2023 18:29:21.120,-0.664,-1.02,-0.652
4/26/2023 18:29:21.130,-0.566,-0.875,-0.695
4/26/2023 18:29:21.140,-0.406,-0.754,-0.711
4/26/2023 18:29:21.150,-0.32,-0.75,-0.695
4/26/2023 18:29:21.160,-0.328,-0.832,-0.715
4/26/2023 18:29:21.170,-0.32,-0.871,-0.789
4/26/2023 18:29:21.180,-0.293,-0.875,-0.832
4/26/2023 18:29:21.190,-0.328,-0.855,-0.848
4/26/2023 18:29:21.200,-0.391,-0.863,-0.844
4/26/2023 18:29:21.210,-0.449,-0.941,-0.77
4/26/2023 18:29:21.220,-0.484,-0.992,-0.676
4/26/2023 18:29:21.230,-0.492,-0.969,-0.605
4/26/2023 18:29:21.240,-0.5,-0.934,-0.574
4/26/2023 18:29:21.250,-0.484,-0.895,-0.551
4/26/2023 18:29:21.260,-0.438,-0.832,-0.516
4/26/2023 18:29:21.270,-0.371,-0.75,-0.477
4/26/2023 18:29:21.280,-0.289,-0.656,-0.441
4/26/2023 18:29:21.290,-0.211,-0.582,-0.426
4/26/2023 18:29:21.300,-0.133,-0.527,-0.418
4/26/2023 18:29:21.310,-0.07,-0.496,-0.406
4/26/2023 18:29:21.320,-0.027,-0.477,-0.375
4/26/2023 18:29:21.330,0.004,-0.469,-0.344
4/26/2023 18:29:21.340,0.004,-0.465,-0.316
4/26/2023 18:29:21.350,-0.031,-0.461,-0.316
4/26/2023 18:29:21.360,-0.082,-0.469,-0.305
4/26/2023 18:29:21.370,-0.129,-0.465,-0.289
4/26/2023 18:29:21.380,-0.168,-0.441,-0.281
4/26/2023 18:29:21.390,-0.203,-0.422,-0.297
4/26/2023 18:29:21.400,-0.203,-0.43,-0.316
4/26/2023 18:29:21.410,-0.18,-0.477,-0.34
4/26/2023 18:29:21.420,-0.152,-0.547,-0.363
4/26/2023 18:29:21.430,-0.152,-0.641,-0.352
4/26/2023 18:29:21.440,-0.176,-0.734,-0.305
4/26/2023 18:29:21.450,-0.191,-0.797,-0.27
4/26/2023 18:29:21.460,-0.191,-0.867,-0.25
4/26/2023 18:29:21.470,-0.215,-0.984,-0.258
4/26/2023 18:29:21.480,-0.254,-1.109,-0.293
4/26/2023 18:29:21.490,-0.266,-1.191,-0.359
4/26/2023 18:29:21.500,-0.211,-1.195,-0.426
4/26/2023 18:29:21.510,-0.031,-1.184,-0.422
4/26/2023 18:29:21.520,0.137,-1.246,-0.379
4/26/2023 18:29:21.530,0.23,-1.328,-0.336
4/26/2023 18:29:21.540,0.199,-1.398,-0.301
4/26/2023 18:29:21.550,0.035,-1.465,-0.215
4/26/2023 18:29:21.560,-0.23,-1.355,-0.395
4/26/2023 18:29:21.570,-0.367,-1.262,-0.758
4/26/2023 18:29:21.580,-0.348,-1.41,-0.789
4/26/2023 18:29:21.590,-0.262,-1.34,-0.746
4/26/2023 18:29:21.600,-0.238,-1.055,-0.805
4/26/2023 18:29:21.610,-0.379,-0.992,-0.785
4/26/2023 18:29:21.620,-0.555,-1.09,-0.633
4/26/2023 18:29:21.630,-0.688,-0.992,-0.559
4/26/2023 18:29:21.640,-0.852,-0.836,-0.543
4/26/2023 18:29:21.650,-0.945,-0.805,-0.586
4/26/2023 18:29:21.660,-0.875,-0.957,-0.629
4/26/2023 18:29:21.670,-0.75,-1.152,-0.66
4/26/2023 18:29:21.680,-0.621,-1.285,-0.707
4/26/2023 18:29:21.690,-0.461,-1.324,-0.723
4/26/2023 18:29:21.700,-0.379,-1.363,-0.73
4/26/2023 18:29:21.710,-0.355,-1.387,-0.711
4/26/2023 18:29:21.720,-0.328,-1.344,-0.688
4/26/2023 18:29:21.730,-0.301,-1.273,-0.676
4/26/2023 18:29:21.740,-0.25,-1.188,-0.66
4/26/2023 18:29:21.750,-0.219,-1.066,-0.531
4/26/2023 18:29:21.760,-0.211,-0.938,-0.371
4/26/2023 18:29:21.770,-0.227,-0.781,-0.297
4/26/2023 18:29:21.780,-0.219,-0.648,-0.246
4/26/2023 18:29:21.790,-0.227,-0.543,-0.191
4/26/2023 18:29:21.800,-0.219,-0.488,-0.133
4/26/2023 18:29:21.810,-0.242,-0.434,-0.156
4/26/2023 18:29:21.820,-0.266,-0.363,-0.203
4/26/2023 18:29:21.830,-0.23,-0.328,-0.18
4/26/2023 18:29:21.840,-0.219,-0.332,-0.172
4/26/2023 18:29:21.850,-0.207,-0.355,-0.156
4/26/2023 18:29:21.860,-0.18,-0.383,-0.137
4/26/2023 18:29:21.870,-0.156,-0.406,-0.113
4/26/2023 18:29:21.880,-0.145,-0.422,-0.102
4/26/2023 18:29:21.890,-0.133,-0.434,-0.098
4/26/2023 18:29:21.900,-0.121,-0.461,-0.098
4/26/2023 18:29:21.910,-0.129,-0.488,-0.09
4/26/2023 18:29:21.920,-0.141,-0.52,-0.09
4/26/2023 18:29:21.930,-0.137,-0.547,-0.102
4/26/2023 18:29:21.940,-0.133,-0.594,-0.137
4/26/2023 18:29:21.950,-0.141,-0.676,-0.207
4/26/2023 18:29:21.960,-0.156,-0.766,-0.32
4/26/2023 18:29:21.970,-0.172,-0.863,-0.445
4/26/2023 18:29:21.980,-0.195,-0.898,-0.598
4/26/2023 18:29:21.990,-0.309,-0.902,-0.676
4/26/2023 18:29:22.000,-0.465,-1.023,-0.602
4/26/2023 18:29:22.010,-0.59,-1.367,-0.559
4/26/2023 18:29:22.020,-0.617,-1.676,-0.574
4/26/2023 18:29:22.030,-0.535,-1.867,-0.527
4/26/2023 18:29:22.040,-0.453,-1.895,-0.566
4/26/2023 18:29:22.050,-0.473,-1.672,-0.793
4/26/2023 18:29:22.060,-0.344,-1.402,-0.715
4/26/2023 18:29:22.070,-0.113,-1.195,-0.547
4/26/2023 18:29:22.080,-0.156,-1.043,-0.652
4/26/2023 18:29:22.090,-0.336,-0.945,-0.773
4/26/2023 18:29:22.100,-0.574,-0.938,-0.77
4/26/2023 18:29:22.110,-0.75,-1.02,-0.734
4/26/2023 18:29:22.120,-0.719,-1.074,-0.668
4/26/2023 18:29:22.130,-0.605,-1.031,-0.648
4/26/2023 18:29:22.140,-0.477,-0.813,-0.695
4/26/2023 18:29:22.150,-0.375,-0.684,-0.691
4/26/2023 18:29:22.160,-0.387,-0.758,-0.672
4/26/2023 18:29:22.170,-0.434,-0.859,-0.738
4/26/2023 18:29:22.180,-0.43,-0.887,-0.809
4/26/2023 18:29:22.190,-0.453,-0.867,-0.82
4/26/2023 18:29:22.200,-0.512,-0.84,-0.84
4/26/2023 18:29:22.210,-0.543,-0.902,-0.836
4/26/2023 18:29:22.220,-0.543,-0.984,-0.746
4/26/2023 18:29:22.230,-0.504,-0.98,-0.645
4/26/2023 18:29:22.240,-0.484,-0.93,-0.563
4/26/2023 18:29:22.250,-0.477,-0.871,-0.52
4/26/2023 18:29:22.260,-0.445,-0.828,-0.504
4/26/2023 18:29:22.270,-0.391,-0.789,-0.492
4/26/2023 18:29:22.280,-0.305,-0.727,-0.465
4/26/2023 18:29:22.290,-0.238,-0.66,-0.441
4/26/2023 18:29:22.300,-0.195,-0.602,-0.418
4/26/2023 18:29:22.310,-0.172,-0.555,-0.406
4/26/2023 18:29:22.320,-0.113,-0.512,-0.375
4/26/2023 18:29:22.330,-0.063,-0.496,-0.324
4/26/2023 18:29:22.340,-0.035,-0.473,-0.281
4/26/2023 18:29:22.350,-0.043,-0.469,-0.262
4/26/2023 18:29:22.360,-0.074,-0.48,-0.258
4/26/2023 18:29:22.370,-0.09,-0.5,-0.254
4/26/2023 18:29:22.380,-0.094,-0.5,-0.254
4/26/2023 18:29:22.390,-0.102,-0.5,-0.246
4/26/2023 18:29:22.400,-0.117,-0.492,-0.258
4/26/2023 18:29:22.410,-0.109,-0.496,-0.273
4/26/2023 18:29:22.420,-0.082,-0.52,-0.297
4/26/2023 18:29:22.430,-0.082,-0.578,-0.332
4/26/2023 18:29:22.440,-0.105,-0.668,-0.336
4/26/2023 18:29:22.450,-0.152,-0.777,-0.309
4/26/2023 18:29:22.460,-0.176,-0.855,-0.297
4/26/2023 18:29:22.470,-0.176,-0.926,-0.285
4/26/2023 18:29:22.480,-0.219,-1.031,-0.266
4/26/2023 18:29:22.490,-0.262,-1.129,-0.273
4/26/2023 18:29:22.500,-0.297,-1.176,-0.316
4/26/2023 18:29:22.510,-0.242,-1.148,-0.379
4/26/2023 18:29:22.520,-0.105,-1.125,-0.41
4/26/2023 18:29:22.530,0.023,-1.184,-0.391
4/26/2023 18:29:22.540,0.109,-1.277,-0.387
4/26/2023 18:29:22.550,0.133,-1.371,-0.383
4/26/2023 18:29:22.560,0.07,-1.453,-0.363
4/26/2023 18:29:22.570,-0.133,-1.512,-0.293
4/26/2023 18:29:22.580,-0.434,-1.391,-0.469
4/26/2023 18:29:22.590,-0.547,-1.293,-0.781
4/26/2023 18:29:22.600,-0.379,-1.422,-0.664
4/26/2023 18:29:22.610,-0.242,-1.262,-0.605
4/26/2023 18:29:22.620,-0.219,-0.969,-0.707
4/26/2023 18:29:22.630,-0.305,-0.969,-0.691
4/26/2023 18:29:22.640,-0.402,-1.031,-0.555
4/26/2023 18:29:22.650,-0.516,-0.875,-0.488
4/26/2023 18:29:22.660,-0.684,-0.688,-0.465
4/26/2023 18:29:22.670,-0.793,-0.656,-0.48
4/26/2023 18:29:22.680,-0.785,-0.824,-0.488
4/26/2023 18:29:22.690,-0.719,-1.039,-0.527
4/26/2023 18:29:22.700,-0.637,-1.168,-0.582
4/26/2023 18:29:22.710,-0.516,-1.258,-0.621
4/26/2023 18:29:22.720,-0.418,-1.34,-0.664
4/26/2023 18:29:22.730,-0.363,-1.406,-0.688
4/26/2023 18:29:22.740,-0.313,-1.383,-0.684
4/26/2023 18:29:22.750,-0.277,-1.293,-0.672
4/26/2023 18:29:22.760,-0.254,-1.195,-0.645
4/26/2023 18:29:22.770,-0.246,-1.094,-0.598
4/26/2023 18:29:22.780,-0.238,-0.977,-0.422
4/26/2023 18:29:22.790,-0.23,-0.828,-0.316
4/26/2023 18:29:22.800,-0.258,-0.707,-0.289
4/26/2023 18:29:22.810,-0.246,-0.641,-0.223
4/26/2023 18:29:22.820,-0.238,-0.57,-0.199
4/26/2023 18:29:22.830,-0.258,-0.508,-0.227
4/26/2023 18:29:22.840,-0.258,-0.453,-0.234
4/26/2023 18:29:22.850,-0.234,-0.445,-0.219
4/26/2023 18:29:22.860,-0.207,-0.445,-0.211
4/26/2023 18:29:22.870,-0.188,-0.434,-0.211
4/26/2023 18:29:22.880,-0.164,-0.426,-0.188
4/26/2023 18:29:22.890,-0.152,-0.418,-0.176
4/26/2023 18:29:22.900,-0.148,-0.43,-0.164
4/26/2023 18:29:22.910,-0.152,-0.457,-0.148
4/26/2023 18:29:22.920,-0.168,-0.488,-0.152
4/26/2023 18:29:22.930,-0.188,-0.535,-0.168
4/26/2023 18:29:22.940,-0.203,-0.602,-0.16
4/26/2023 18:29:22.950,-0.207,-0.648,-0.152
4/26/2023 18:29:22.960,-0.223,-0.664,-0.145
4/26/2023 18:29:22.970,-0.227,-0.688,-0.156
4/26/2023 18:29:22.980,-0.215,-0.738,-0.219
4/26/2023 18:29:22.990,-0.211,-0.793,-0.352
4/26/2023 18:29:23.000,-0.176,-0.84,-0.43
4/26/2023 18:29:23.010,-0.227,-0.875,-0.516
4/26/2023 18:29:23.020,-0.344,-0.945,-0.586
4/26/2023 18:29:23.030,-0.523,-1.184,-0.586
4/26/2023 18:29:23.040,-0.605,-1.477,-0.551
4/26/2023 18:29:23.050,-0.531,-1.664,-0.477
4/26/2023 18:29:23.060,-0.41,-1.746,-0.359
4/26/2023 18:29:23.070,-0.324,-1.652,-0.41
4/26/2023 18:29:23.080,-0.234,-1.367,-0.617
4/26/2023 18:29:23.090,-0.035,-1.172,-0.559
4/26/2023 18:29:23.100,-0.023,-1.055,-0.492
4/26/2023 18:29:23.110,-0.246,-1.023,-0.59
4/26/2023 18:29:23.120,-0.496,-0.957,-0.766
4/26/2023 18:29:23.130,-0.629,-1.031,-0.75
4/26/2023 18:29:23.140,-0.691,-1.098,-0.684
4/26/2023 18:29:23.150,-0.664,-1.078,-0.672
4/26/2023 18:29:23.160,-0.602,-0.965,-0.746
4/26/2023 18:29:23.170,-0.484,-0.855,-0.801
4/26/2023 18:29:23.180,-0.41,-0.883,-0.797
4/26/2023 18:29:23.190,-0.43,-0.941,-0.816
4/26/2023 18:29:23.200,-0.434,-0.93,-0.863
4/26/2023 18:29:23.210,-0.398,-0.898,-0.859
4/26/2023 18:29:23.220,-0.43,-0.895,-0.832
4/26/2023 18:29:23.230,-0.465,-0.922,-0.754
4/26/2023 18:29:23.240,-0.473,-0.961,-0.641
4/26/2023 18:29:23.250,-0.48,-0.941,-0.543
4/26/2023 18:29:23.260,-0.473,-0.91,-0.484
4/26/2023 18:29:23.270,-0.465,-0.883,-0.477
4/26/2023 18:29:23.280,-0.438,-0.84,-0.477
4/26/2023 18:29:23.290,-0.402,-0.77,-0.461
4/26/2023 18:29:23.300,-0.328,-0.688,-0.43
4/26/2023 18:29:23.310,-0.254,-0.602,-0.41
4/26/2023 18:29:23.320,-0.18,-0.539,-0.406
4/26/2023 18:29:23.330,-0.113,-0.512,-0.395
4/26/2023 18:29:23.340,-0.051,-0.504,-0.367
4/26/2023 18:29:23.350,-0.004,-0.488,-0.328
4/26/2023 18:29:23.360,0.016,-0.473,-0.301
4/26/2023 18:29:23.370,0.012,-0.488,-0.289
4/26/2023 18:29:23.380,0.004,-0.504,-0.289
4/26/2023 18:29:23.390,-0.035,-0.492,-0.285
4/26/2023 18:29:23.400,-0.094,-0.461,-0.281
4/26/2023 18:29:23.410,-0.137,-0.434,-0.297
4/26/2023 18:29:23.420,-0.168,-0.445,-0.309
4/26/2023 18:29:23.430,-0.152,-0.496,-0.324
4/26/2023 18:29:23.440,-0.133,-0.555,-0.344
4/26/2023 18:29:23.450,-0.141,-0.641,-0.352
4/26/2023 18:29:23.460,-0.164,-0.762,-0.328
4/26/2023 18:29:23.470,-0.176,-0.871,-0.32
4/26/2023 18:29:23.480,-0.152,-0.945,-0.313
4/26/2023 18:29:23.490,-0.148,-1.016,-0.293
4/26/2023 18:29:23.500,-0.203,-1.105,-0.281
4/26/2023 18:29:23.510,-0.238,-1.172,-0.309
4/26/2023 18:29:23.520,-0.227,-1.199,-0.363
4/26/2023 18:29:23.530,-0.137,-1.18,-0.406
4/26/2023 18:29:23.540,-0.008,-1.176,-0.406
4/26/2023 18:29:23.550,0.078,-1.223,-0.395
4/26/2023 18:29:23.560,0.137,-1.281,-0.379
4/26/2023 18:29:23.570,0.117,-1.355,-0.336
4/26/2023 18:29:23.580,-0.035,-1.395,-0.285
4/26/2023 18:29:23.590,-0.23,-1.309,-0.48
4/26/2023 18:29:23.600,-0.348,-1.332,-0.656
4/26/2023 18:29:23.610,-0.305,-1.379,-0.598
4/26/2023 18:29:23.620,-0.254,-1.188,-0.648
4/26/2023 18:29:23.630,-0.258,-0.965,-0.762
4/26/2023 18:29:23.640,-0.332,-1.004,-0.719
4/26/2023 18:29:23.650,-0.438,-1.059,-0.609
4/26/2023 18:29:23.660,-0.602,-0.934,-0.563
4/26/2023 18:29:23.670,-0.793,-0.781,-0.57
4/26/2023 18:29:23.680,-0.867,-0.816,-0.59
4/26/2023 18:29:23.690,-0.813,-1.027,-0.582
4/26/2023 18:29:23.700,-0.723,-1.195,-0.629
4/26/2023 18:29:23.710,-0.602,-1.297,-0.672
4/26/2023 18:29:23.720,-0.492,-1.367,-0.707
4/26/2023 18:29:23.730,-0.434,-1.402,-0.719
4/26/2023 18:29:23.740,-0.406,-1.391,-0.707
4/26/2023 18:29:23.750,-0.363,-1.32,-0.695
4/26/2023 18:29:23.760,-0.305,-1.223,-0.66
4/26/2023 18:29:23.770,-0.254,-1.113,-0.594
4/26/2023 18:29:23.780,-0.23,-0.961,-0.527
4/26/2023 18:29:23.790,-0.215,-0.891,-0.332
4/26/2023 18:29:23.800,-0.238,-0.777,-0.313
4/26/2023 18:29:23.810,-0.211,-0.617,-0.273
4/26/2023 18:29:23.820,-0.203,-0.512,-0.219
4/26/2023 18:29:23.830,-0.203,-0.473,-0.16
4/26/2023 18:29:23.840,-0.238,-0.453,-0.188
4/26/2023 18:29:23.850,-0.27,-0.426,-0.203
4/26/2023 18:29:23.860,-0.262,-0.402,-0.191
4/26/2023 18:29:23.870,-0.254,-0.383,-0.191
4/26/2023 18:29:23.880,-0.23,-0.395,-0.184
4/26/2023 18:29:23.890,-0.207,-0.395,-0.168
4/26/2023 18:29:23.900,-0.188,-0.402,-0.145
4/26/2023 18:29:23.910,-0.176,-0.418,-0.129
4/26/2023 18:29:23.920,-0.164,-0.434,-0.109
4/26/2023 18:29:23.930,-0.16,-0.465,-0.105
4/26/2023 18:29:23.940,-0.164,-0.52,-0.109
4/26/2023 18:29:23.950,-0.156,-0.566,-0.105
4/26/2023 18:29:23.960,-0.141,-0.609,-0.105
4/26/2023 18:29:23.970,-0.121,-0.66,-0.113
4/26/2023 18:29:23.980,-0.125,-0.738,-0.168
4/26/2023 18:29:23.990,-0.152,-0.828,-0.324
4/26/2023 18:29:24.000,-0.16,-0.906,-0.457
4/26/2023 18:29:24.010,-0.215,-0.938,-0.578
4/26/2023 18:29:24.020,-0.375,-0.949,-0.613
4/26/2023 18:29:24.030,-0.531,-1.105,-0.555
4/26/2023 18:29:24.040,-0.645,-1.434,-0.535
4/26/2023 18:29:24.050,-0.59,-1.695,-0.5
4/26/2023 18:29:24.060,-0.473,-1.813,-0.434
4/26/2023 18:29:24.070,-0.402,-1.758,-0.492
4/26/2023 18:29:24.080,-0.41,-1.504,-0.75
4/26/2023 18:29:24.090,-0.258,-1.266,-0.672
4/26/2023 18:29:24.100,-0.098,-1.098,-0.543
4/26/2023 18:29:24.110,-0.23,-0.996,-0.648
4/26/2023 18:29:24.120,-0.469,-0.93,-0.781
4/26/2023 18:29:24.130,-0.617,-1,-0.723
4/26/2023 18:29:24.140,-0.715,-1.125,-0.668
4/26/2023 18:29:24.150,-0.66,-1.09,-0.664
4/26/2023 18:29:24.160,-0.574,-0.922,-0.742
4/26/2023 18:29:24.170,-0.449,-0.785,-0.754
4/26/2023 18:29:24.180,-0.395,-0.77,-0.75
4/26/2023 18:29:24.190,-0.414,-0.871,-0.777
4/26/2023 18:29:24.200,-0.414,-0.914,-0.863
4/26/2023 18:29:24.210,-0.379,-0.906,-0.902
4/26/2023 18:29:24.220,-0.402,-0.879,-0.875
4/26/2023 18:29:24.230,-0.461,-0.879,-0.84
4/26/2023 18:29:24.240,-0.512,-0.949,-0.738
4/26/2023 18:29:24.250,-0.516,-0.973,-0.605
4/26/2023 18:29:24.260,-0.512,-0.898,-0.52
4/26/2023 18:29:24.270,-0.504,-0.832,-0.48
4/26/2023 18:29:24.280,-0.484,-0.801,-0.473
4/26/2023 18:29:24.290,-0.441,-0.785,-0.473
4/26/2023 18:29:24.300,-0.371,-0.75,-0.461
4/26/2023 18:29:24.310,-0.281,-0.684,-0.441
4/26/2023 18:29:24.320,-0.215,-0.605,-0.426
4/26/2023 18:29:24.330,-0.152,-0.535,-0.426
4/26/2023 18:29:24.340,-0.098,-0.512,-0.406
4/26/2023 18:29:24.350,-0.02,-0.504,-0.367
4/26/2023 18:29:24.360,0.027,-0.48,-0.32
4/26/2023 18:29:24.370,0.016,-0.457,-0.297
4/26/2023 18:29:24.380,-0.035,-0.457,-0.305
4/26/2023 18:29:24.390,-0.074,-0.484,-0.309
4/26/2023 18:29:24.400,-0.109,-0.504,-0.313
4/26/2023 18:29:24.410,-0.137,-0.488,-0.309
4/26/2023 18:29:24.420,-0.168,-0.469,-0.305
4/26/2023 18:29:24.430,-0.188,-0.5,-0.301
4/26/2023 18:29:24.440,-0.164,-0.539,-0.293
4/26/2023 18:29:24.450,-0.145,-0.563,-0.297
4/26/2023 18:29:24.460,-0.152,-0.633,-0.27
4/26/2023 18:29:24.470,-0.176,-0.746,-0.227
4/26/2023 18:29:24.480,-0.188,-0.844,-0.215
4/26/2023 18:29:24.490,-0.164,-0.93,-0.23
4/26/2023 18:29:24.500,-0.195,-1.035,-0.242
4/26/2023 18:29:24.510,-0.242,-1.141,-0.25
4/26/2023 18:29:24.520,-0.281,-1.203,-0.289
4/26/2023 18:29:24.530,-0.25,-1.199,-0.352
4/26/2023 18:29:24.540,-0.133,-1.191,-0.379
4/26/2023 18:29:24.550,0.008,-1.258,-0.375
4/26/2023 18:29:24.560,0.102,-1.344,-0.371
4/26/2023 18:29:24.570,0.129,-1.41,-0.352
4/26/2023 18:29:24.580,0.051,-1.461,-0.289
4/26/2023 18:29:24.590,-0.141,-1.398,-0.383
4/26/2023 18:29:24.600,-0.324,-1.352,-0.613
4/26/2023 18:29:24.610,-0.336,-1.398,-0.625
4/26/2023 18:29:24.620,-0.25,-1.242,-0.605
4/26/2023 18:29:24.630,-0.223,-1.004,-0.695
4/26/2023 18:29:24.640,-0.289,-1.004,-0.664
4/26/2023 18:29:24.650,-0.375,-1.023,-0.566
4/26/2023 18:29:24.660,-0.516,-0.906,-0.535
4/26/2023 18:29:24.670,-0.73,-0.785,-0.563
4/26/2023 18:29:24.680,-0.867,-0.813,-0.609
4/26/2023 18:29:24.690,-0.855,-1.02,-0.609
4/26/2023 18:29:24.700,-0.766,-1.188,-0.664
4/26/2023 18:29:24.710,-0.633,-1.293,-0.727
4/26/2023 18:29:24.720,-0.504,-1.395,-0.742
4/26/2023 18:29:24.730,-0.445,-1.473,-0.723
4/26/2023 18:29:24.740,-0.387,-1.434,-0.684
4/26/2023 18:29:24.750,-0.348,-1.328,-0.68
4/26/2023 18:29:24.760,-0.301,-1.223,-0.668
4/26/2023 18:29:24.770,-0.234,-1.137,-0.602
4/26/2023 18:29:24.780,-0.195,-0.996,-0.508
4/26/2023 18:29:24.790,-0.207,-0.832,-0.422
4/26/2023 18:29:24.800,-0.258,-0.695,-0.379
4/26/2023 18:29:24.810,-0.258,-0.625,-0.285
4/26/2023 18:29:24.820,-0.25,-0.539,-0.23
4/26/2023 18:29:24.830,-0.254,-0.453,-0.234
4/26/2023 18:29:24.840,-0.27,-0.418,-0.219
4/26/2023 18:29:24.850,-0.27,-0.418,-0.211
4/26/2023 18:29:24.860,-0.285,-0.41,-0.207
4/26/2023 18:29:24.870,-0.289,-0.398,-0.199
4/26/2023 18:29:24.880,-0.289,-0.395,-0.184
4/26/2023 18:29:24.890,-0.273,-0.398,-0.164
4/26/2023 18:29:24.900,-0.254,-0.414,-0.145
4/26/2023 18:29:24.910,-0.227,-0.426,-0.121
4/26/2023 18:29:24.920,-0.207,-0.445,-0.109
4/26/2023 18:29:24.930,-0.188,-0.469,-0.105
4/26/2023 18:29:24.940,-0.176,-0.508,-0.113
4/26/2023 18:29:24.950,-0.156,-0.551,-0.125
4/26/2023 18:29:24.960,-0.125,-0.582,-0.125
4/26/2023 18:29:24.970,-0.082,-0.629,-0.121
4/26/2023 18:29:24.980,-0.07,-0.707,-0.145
4/26/2023 18:29:24.990,-0.082,-0.805,-0.258
4/26/2023 18:29:25.000,-0.09,-0.895,-0.398
4/26/2023 18:29:25.010,-0.145,-0.957,-0.551
4/26/2023 18:29:25.020,-0.258,-0.992,-0.629
4/26/2023 18:29:25.030,-0.422,-1.078,-0.57
4/26/2023 18:29:25.040,-0.605,-1.313,-0.527
4/26/2023 18:29:25.050,-0.605,-1.543,-0.496
4/26/2023 18:29:25.060,-0.52,-1.664,-0.434
4/26/2023 18:29:25.070,-0.441,-1.684,-0.48
4/26/2023 18:29:25.080,-0.496,-1.563,-0.766
4/26/2023 18:29:25.090,-0.484,-1.438,-0.789
4/26/2023 18:29:25.100,-0.25,-1.305,-0.582
4/26/2023 18:29:25.110,-0.254,-1.082,-0.684
4/26/2023 18:29:25.120,-0.414,-0.941,-0.855
4/26/2023 18:29:25.130,-0.535,-0.961,-0.77
4/26/2023 18:29:25.140,-0.664,-1.09,-0.629
4/26/2023 18:29:25.150,-0.676,-1.07,-0.57
4/26/2023 18:29:25.160,-0.563,-0.934,-0.582
4/26/2023 18:29:25.170,-0.426,-0.766,-0.645
4/26/2023 18:29:25.180,-0.32,-0.727,-0.664
4/26/2023 18:29:25.190,-0.332,-0.809,-0.711
4/26/2023 18:29:25.200,-0.355,-0.902,-0.82
4/26/2023 18:29:25.210,-0.348,-0.934,-0.906
4/26/2023 18:29:25.220,-0.359,-0.945,-0.902
4/26/2023 18:29:25.230,-0.434,-0.898,-0.895
4/26/2023 18:29:25.240,-0.492,-0.922,-0.844
4/26/2023 18:29:25.250,-0.516,-0.98,-0.719
4/26/2023 18:29:25.260,-0.5,-0.953,-0.59
4/26/2023 18:29:25.270,-0.5,-0.883,-0.512
4/26/2023 18:29:25.280,-0.484,-0.813,-0.477
4/26/2023 18:29:25.290,-0.449,-0.762,-0.465
4/26/2023 18:29:25.300,-0.387,-0.719,-0.449
4/26/2023 18:29:25.310,-0.324,-0.652,-0.434
4/26/2023 18:29:25.320,-0.273,-0.598,-0.43
4/26/2023 18:29:25.330,-0.219,-0.578,-0.438
4/26/2023 18:29:25.340,-0.156,-0.574,-0.445
4/26/2023 18:29:25.350,-0.086,-0.563,-0.418
4/26/2023 18:29:25.360,-0.047,-0.535,-0.367
4/26/2023 18:29:25.370,-0.023,-0.508,-0.32
4/26/2023 18:29:25.380,-0.031,-0.496,-0.281
4/26/2023 18:29:25.390,-0.047,-0.5,-0.281
4/26/2023 18:29:25.400,-0.047,-0.508,-0.277
4/26/2023 18:29:25.410,-0.066,-0.496,-0.277
4/26/2023 18:29:25.420,-0.082,-0.461,-0.281
4/26/2023 18:29:25.430,-0.094,-0.438,-0.301
4/26/2023 18:29:25.440,-0.102,-0.449,-0.328
4/26/2023 18:29:25.450,-0.109,-0.48,-0.363
4/26/2023 18:29:25.460,-0.121,-0.555,-0.375
4/26/2023 18:29:25.470,-0.164,-0.672,-0.359
4/26/2023 18:29:25.480,-0.203,-0.805,-0.332
4/26/2023 18:29:25.490,-0.199,-0.887,-0.324
4/26/2023 18:29:25.500,-0.207,-0.984,-0.305
4/26/2023 18:29:25.510,-0.238,-1.109,-0.281
4/26/2023 18:29:25.520,-0.254,-1.184,-0.297
4/26/2023 18:29:25.530,-0.215,-1.184,-0.336
4/26/2023 18:29:25.540,-0.102,-1.152,-0.371
4/26/2023 18:29:25.550,0.055,-1.16,-0.371
4/26/2023 18:29:25.560,0.152,-1.227,-0.375
4/26/2023 18:29:25.570,0.172,-1.297,-0.402
4/26/2023 18:29:25.580,0.125,-1.375,-0.402
4/26/2023 18:29:25.590,-0.031,-1.438,-0.328
4/26/2023 18:29:25.600,-0.293,-1.363,-0.422
4/26/2023 18:29:25.610,-0.457,-1.246,-0.738
4/26/2023 18:29:25.620,-0.391,-1.363,-0.738
4/26/2023 18:29:25.630,-0.281,-1.297,-0.648
4/26/2023 18:29:25.640,-0.262,-1.008,-0.758
4/26/2023 18:29:25.650,-0.336,-0.941,-0.766
4/26/2023 18:29:25.660,-0.457,-1.07,-0.613
4/26/2023 18:29:25.670,-0.574,-0.992,-0.508
4/26/2023 18:29:25.680,-0.73,-0.766,-0.531
4/26/2023 18:29:25.690,-0.84,-0.711,-0.539
4/26/2023 18:29:25.700,-0.832,-0.84,-0.563
4/26/2023 18:29:25.710,-0.742,-1.027,-0.59
4/26/2023 18:29:25.720,-0.641,-1.172,-0.664
4/26/2023 18:29:25.730,-0.516,-1.266,-0.734
4/26/2023 18:29:25.740,-0.422,-1.363,-0.766
4/26/2023 18:29:25.750,-0.367,-1.441,-0.727
4/26/2023 18:29:25.760,-0.301,-1.387,-0.797
4/26/2023 18:29:25.770,-0.41,-1.313,-0.746
4/26/2023 18:29:25.780,-0.324,-1.242,-0.543
4/26/2023 18:29:25.790,-0.238,-1.09,-0.508
4/26/2023 18:29:25.800,-0.242,-0.906,-0.473
4/26/2023 18:29:25.810,-0.219,-0.746,-0.375
4/26/2023 18:29:25.820,-0.199,-0.625,-0.297
4/26/2023 18:29:25.830,-0.195,-0.543,-0.246
4/26/2023 18:29:25.840,-0.18,-0.492,-0.199
4/26/2023 18:29:25.850,-0.219,-0.453,-0.227
4/26/2023 18:29:25.860,-0.242,-0.414,-0.215
4/26/2023 18:29:25.870,-0.242,-0.383,-0.191
4/26/2023 18:29:25.880,-0.258,-0.363,-0.184
4/26/2023 18:29:25.890,-0.273,-0.367,-0.18
4/26/2023 18:29:25.900,-0.258,-0.383,-0.16
4/26/2023 18:29:25.910,-0.246,-0.395,-0.141
4/26/2023 18:29:25.920,-0.238,-0.414,-0.121
4/26/2023 18:29:25.930,-0.223,-0.434,-0.113
4/26/2023 18:29:25.940,-0.207,-0.469,-0.125
4/26/2023 18:29:25.950,-0.188,-0.512,-0.117
4/26/2023 18:29:25.960,-0.184,-0.563,-0.105
4/26/2023 18:29:25.970,-0.168,-0.594,-0.105
4/26/2023 18:29:25.980,-0.148,-0.633,-0.121
4/26/2023 18:29:25.990,-0.141,-0.707,-0.141
4/26/2023 18:29:26.000,-0.16,-0.805,-0.211
4/26/2023 18:29:26.010,-0.16,-0.914,-0.336
4/26/2023 18:29:26.020,-0.156,-1.012,-0.473
4/26/2023 18:29:26.030,-0.199,-0.996,-0.645
4/26/2023 18:29:26.040,-0.289,-0.965,-0.688
4/26/2023 18:29:26.050,-0.441,-1.09,-0.605
4/26/2023 18:29:26.060,-0.539,-1.371,-0.563
4/26/2023 18:29:26.070,-0.539,-1.566,-0.535
4/26/2023 18:29:26.080,-0.441,-1.672,-0.438
4/26/2023 18:29:26.090,-0.348,-1.668,-0.43
4/26/2023 18:29:26.100,-0.316,-1.516,-0.637
4/26/2023 18:29:26.110,-0.227,-1.336,-0.688
4/26/2023 18:29:26.120,-0.094,-1.223,-0.582
4/26/2023 18:29:26.130,-0.219,-1.152,-0.641
4/26/2023 18:29:26.140,-0.488,-1.051,-0.797
4/26/2023 18:29:26.150,-0.688,-1,-0.766
4/26/2023 18:29:26.160,-0.77,-1.055,-0.668
4/26/2023 18:29:26.170,-0.742,-1.027,-0.66
4/26/2023 18:29:26.180,-0.605,-0.926,-0.691
4/26/2023 18:29:26.190,-0.488,-0.797,-0.758
4/26/2023 18:29:26.200,-0.406,-0.738,-0.762
4/26/2023 18:29:26.210,-0.398,-0.816,-0.754
4/26/2023 18:29:26.220,-0.402,-0.898,-0.797
4/26/2023 18:29:26.230,-0.363,-0.887,-0.848
4/26/2023 18:29:26.240,-0.371,-0.852,-0.836
4/26/2023 18:29:26.250,-0.434,-0.836,-0.801
4/26/2023 18:29:26.260,-0.504,-0.891,-0.734
4/26/2023 18:29:26.270,-0.523,-0.965,-0.621
4/26/2023 18:29:26.280,-0.52,-0.945,-0.523
4/26/2023 18:29:26.290,-0.516,-0.875,-0.5
4/26/2023 18:29:26.300,-0.484,-0.836,-0.504
4/26/2023 18:29:26.310,-0.41,-0.828,-0.492
4/26/2023 18:29:26.320,-0.32,-0.793,-0.469
4/26/2023 18:29:26.330,-0.246,-0.707,-0.449
4/26/2023 18:29:26.340,-0.191,-0.629,-0.434
4/26/2023 18:29:26.350,-0.137,-0.566,-0.414
4/26/2023 18:29:26.360,-0.063,-0.527,-0.375
4/26/2023 18:29:26.370,-0.004,-0.508,-0.332
4/26/2023 18:29:26.380,0.02,-0.496,-0.301
4/26/2023 18:29:26.390,0,-0.488,-0.289
4/26/2023 18:29:26.400,-0.031,-0.488,-0.285
4/26/2023 18:29:26.410,-0.086,-0.512,-0.301
4/26/2023 18:29:26.420,-0.113,-0.523,-0.309
4/26/2023 18:29:26.430,-0.129,-0.512,-0.297
4/26/2023 18:29:26.440,-0.156,-0.512,-0.285
4/26/2023 18:29:26.450,-0.172,-0.531,-0.289
4/26/2023 18:29:26.460,-0.148,-0.535,-0.293
4/26/2023 18:29:26.470,-0.113,-0.559,-0.305
4/26/2023 18:29:26.480,-0.113,-0.641,-0.281
4/26/2023 18:29:26.490,-0.141,-0.746,-0.254
4/26/2023 18:29:26.500,-0.176,-0.828,-0.242
4/26/2023 18:29:26.510,-0.184,-0.875,-0.238
4/26/2023 18:29:26.520,-0.238,-0.945,-0.258
4/26/2023 18:29:26.530,-0.305,-1.031,-0.285
4/26/2023 18:29:26.540,-0.352,-1.113,-0.32
4/26/2023 18:29:26.550,-0.332,-1.125,-0.387
4/26/2023 18:29:26.560,-0.199,-1.105,-0.418
4/26/2023 18:29:26.570,-0.047,-1.172,-0.402
4/26/2023 18:29:26.580,0.078,-1.258,-0.387
4/26/2023 18:29:26.590,0.152,-1.355,-0.344
4/26/2023 18:29:26.600,0.059,-1.441,-0.27
4/26/2023 18:29:26.610,-0.145,-1.414,-0.383
4/26/2023 18:29:26.620,-0.336,-1.398,-0.582
4/26/2023 18:29:26.630,-0.324,-1.422,-0.57
4/26/2023 18:29:26.640,-0.234,-1.27,-0.602
4/26/2023 18:29:26.650,-0.223,-1.09,-0.742
4/26/2023 18:29:26.660,-0.277,-1.113,-0.746
4/26/2023 18:29:26.670,-0.359,-1.156,-0.664
4/26/2023 18:29:26.680,-0.504,-1.027,-0.602
4/26/2023 18:29:26.690,-0.734,-0.844,-0.594
4/26/2023 18:29:26.700,-0.914,-0.777,-0.617
4/26/2023 18:29:26.710,-0.918,-0.887,-0.594
4/26/2023 18:29:26.720,-0.813,-1.027,-0.559
4/26/2023 18:29:26.730,-0.68,-1.117,-0.605
4/26/2023 18:29:26.740,-0.531,-1.207,-0.641
4/26/2023 18:29:26.750,-0.445,-1.324,-0.668
4/26/2023 18:29:26.760,-0.434,-1.391,-0.703
4/26/2023 18:29:26.770,-0.375,-1.371,-0.715
4/26/2023 18:29:26.780,-0.285,-1.25,-0.781
4/26/2023 18:29:26.790,-0.309,-1.168,-0.746
4/26/2023 18:29:26.800,-0.23,-1.148,-0.57
4/26/2023 18:29:26.810,-0.172,-1.055,-0.445
4/26/2023 18:29:26.820,-0.215,-0.898,-0.387
4/26/2023 18:29:26.830,-0.238,-0.758,-0.332
4/26/2023 18:29:26.840,-0.246,-0.652,-0.266
4/26/2023 18:29:26.850,-0.266,-0.559,-0.234
4/26/2023 18:29:26.860,-0.285,-0.48,-0.203
4/26/2023 18:29:26.870,-0.285,-0.438,-0.184
4/26/2023 18:29:26.880,-0.293,-0.41,-0.176
4/26/2023 18:29:26.890,-0.273,-0.395,-0.164
4/26/2023 18:29:26.900,-0.25,-0.387,-0.148
4/26/2023 18:29:26.910,-0.223,-0.379,-0.129
4/26/2023 18:29:26.920,-0.18,-0.387,-0.113
4/26/2023 18:29:26.930,-0.137,-0.402,-0.098
4/26/2023 18:29:26.940,-0.117,-0.426,-0.09
4/26/2023 18:29:26.950,-0.098,-0.445,-0.086
4/26/2023 18:29:26.960,-0.09,-0.484,-0.098
4/26/2023 18:29:26.970,-0.09,-0.551,-0.094
4/26/2023 18:29:26.980,-0.082,-0.598,-0.07
4/26/2023 18:29:26.990,-0.074,-0.613,-0.074
4/26/2023 18:29:27.000,-0.113,-0.641,-0.133
4/26/2023 18:29:27.010,-0.129,-0.723,-0.23
4/26/2023 18:29:27.020,-0.156,-0.84,-0.34
4/26/2023 18:29:27.030,-0.211,-0.875,-0.504
4/26/2023 18:29:27.040,-0.289,-0.848,-0.617
4/26/2023 18:29:27.050,-0.438,-0.906,-0.563
4/26/2023 18:29:27.060,-0.578,-1.18,-0.52
4/26/2023 18:29:27.070,-0.629,-1.527,-0.543
4/26/2023 18:29:27.080,-0.566,-1.773,-0.539
4/26/2023 18:29:27.090,-0.445,-1.879,-0.512
4/26/2023 18:29:27.100,-0.414,-1.727,-0.746
4/26/2023 18:29:27.110,-0.398,-1.441,-0.887
4/26/2023 18:29:27.120,-0.254,-1.281,-0.66
4/26/2023 18:29:27.130,-0.301,-1.16,-0.691
4/26/2023 18:29:27.140,-0.426,-1.117,-0.816
4/26/2023 18:29:27.150,-0.539,-1.105,-0.777
4/26/2023 18:29:27.160,-0.633,-1.16,-0.625
4/26/2023 18:29:27.170,-0.699,-1.086,-0.594
4/26/2023 18:29:27.180,-0.605,-0.934,-0.609
4/26/2023 18:29:27.190,-0.473,-0.754,-0.668
4/26/2023 18:29:27.200,-0.363,-0.688,-0.652
4/26/2023 18:29:27.210,-0.344,-0.766,-0.645
4/26/2023 18:29:27.220,-0.367,-0.836,-0.738
4/26/2023 18:29:27.230,-0.387,-0.848,-0.879
4/26/2023 18:29:27.240,-0.383,-0.867,-0.926
4/26/2023 18:29:27.250,-0.434,-0.859,-0.906
4/26/2023 18:29:27.260,-0.492,-0.859,-0.852
4/26/2023 18:29:27.270,-0.488,-0.922,-0.727
4/26/2023 18:29:27.280,-0.473,-0.938,-0.582
4/26/2023 18:29:27.290,-0.449,-0.863,-0.488
4/26/2023 18:29:27.300,-0.449,-0.801,-0.449
4/26/2023 18:29:27.310,-0.438,-0.785,-0.445
4/26/2023 18:29:27.320,-0.398,-0.773,-0.453
4/26/2023 18:29:27.330,-0.336,-0.742,-0.453
4/26/2023 18:29:27.340,-0.27,-0.688,-0.434
4/26/2023 18:29:27.350,-0.223,-0.629,-0.418
4/26/2023 18:29:27.360,-0.203,-0.57,-0.418
4/26/2023 18:29:27.370,-0.148,-0.527,-0.383
4/26/2023 18:29:27.380,-0.086,-0.492,-0.336
4/26/2023 18:29:27.390,-0.035,-0.469,-0.285
4/26/2023 18:29:27.400,-0.004,-0.465,-0.246
