------------ Data File Created By ActiGraph GT3X+ ActiLife v6.13.4 Firmware v1.7.2 date format M/d/yyyy at 100 Hz  Filter Normal -----------
Serial Number: TAS1H34200054
Start Time 14:31:00
Start Date 4/28/2023
Epoch Period (hh:mm:ss) 00:00:00
Download Time 14:47:06
Download Date 4/28/2023
Current Memory Address: 0
Current Battery Voltage: 4.19     Mode = 12
--------------------------------------------------
Timestamp,Accelerometer X,Accelerometer Y,Accelerometer Z
4/28/2023 14:31:00.000,-0.195,-0.992,-0.105
4/28/2023 14:31:00.010,-0.164,-0.988,-0.102
4/28/2023 14:31:00.020,-0.141,-0.992,-0.102
4/28/2023 14:31:00.030,-0.117,-0.992,-0.094
4/28/2023 14:31:00.040,-0.098,-0.996,-0.09
4/28/2023 14:31:00.050,-0.082,-1.008,-0.078
4/28/2023 14:31:00.060,-0.063,-1.016,-0.078
4/28/2023 14:31:00.070,-0.047,-1.027,-0.086
4/28/2023 14:31:00.080,-0.027,-1.047,-0.09
4/28/2023 14:31:00.090,-0.02,-1.055,-0.09
4/28/2023 14:31:00.100,-0.008,-1.063,-0.094
4/28/2023 14:31:00.110,-0.004,-1.066,-0.098
4/28/2023 14:31:00.120,0,-1.066,-0.094
4/28/2023 14:31:00.130,0.008,-1.055,-0.09
4/28/2023 14:31:00.140,0.004,-1.043,-0.09
4/28/2023 14:31:00.150,0,-1.039,-0.082
4/28/2023 14:31:00.160,0,-1.031,-0.074
4/28/2023 14:31:00.170,0.004,-1.023,-0.07
4/28/2023 14:31:00.180,0,-1.02,-0.066
4/28/2023 14:31:00.190,-0.008,-1.023,-0.07
4/28/2023 14:31:00.200,-0.02,-1.035,-0.07
4/28/2023 14:31:00.210,-0.039,-1.039,-0.074
4/28/2023 14:31:00.220,-0.059,-1.031,-0.074
4/28/2023 14:31:00.230,-0.07,-1.02,-0.07
4/28/2023 14:31:00.240,-0.078,-1.016,-0.07
4/28/2023 14:31:00.250,-0.09,-1.016,-0.082
4/28/2023 14:31:00.260,-0.09,-1.02,-0.09
4/28/2023 14:31:00.270,-0.102,-1.023,-0.098
4/28/2023 14:31:00.280,-0.113,-1.027,-0.098
4/28/2023 14:31:00.290,-0.121,-1.027,-0.098
4/28/2023 14:31:00.300,-0.137,-1.016,-0.094
4/28/2023 14:31:00.310,-0.164,-0.918,-0.008
4/28/2023 14:31:00.320,-0.18,-1,0.023
4/28/2023 14:31:00.330,-0.035,-0.797,0.012
4/28/2023 14:31:00.340,0.051,-0.699,-0.27
4/28/2023 14:31:00.350,-0.066,-0.973,-0.531
4/28/2023 14:31:00.360,-0.363,-1.539,-0.387
4/28/2023 14:31:00.370,-0.344,-1.488,-0.262
4/28/2023 14:31:00.380,-0.215,-1.199,-0.07
4/28/2023 14:31:00.390,-0.211,-0.996,0.07
4/28/2023 14:31:00.400,-0.227,-0.828,0.074
4/28/2023 14:31:00.410,-0.176,-0.797,0.027
4/28/2023 14:31:00.420,-0.121,-0.875,-0.086
4/28/2023 14:31:00.430,-0.102,-0.992,-0.199
4/28/2023 14:31:00.440,-0.09,-1.078,-0.23
4/28/2023 14:31:00.450,-0.051,-1.078,-0.207
4/28/2023 14:31:00.460,-0.027,-1.047,-0.16
4/28/2023 14:31:00.470,-0.027,-1.012,-0.125
4/28/2023 14:31:00.480,-0.055,-1.008,-0.109
4/28/2023 14:31:00.490,-0.105,-1.02,-0.113
4/28/2023 14:31:00.500,-0.152,-1.023,-0.121
4/28/2023 14:31:00.510,-0.164,-1.027,-0.121
4/28/2023 14:31:00.520,-0.16,-1.035,-0.129
4/28/2023 14:31:00.530,-0.148,-1.035,-0.133
4/28/2023 14:31:00.540,-0.129,-1.031,-0.148
4/28/2023 14:31:00.550,-0.117,-1.035,-0.152
4/28/2023 14:31:00.560,-0.109,-1.031,-0.148
4/28/2023 14:31:00.570,-0.109,-1.023,-0.141
4/28/2023 14:31:00.580,-0.117,-1.02,-0.125
4/28/2023 14:31:00.590,-0.121,-1.008,-0.113
4/28/2023 14:31:00.600,-0.125,-1.008,-0.105
4/28/2023 14:31:00.610,-0.125,-1.02,-0.113
4/28/2023 14:31:00.620,-0.121,-1.027,-0.117
4/28/2023 14:31:00.630,-0.117,-1.027,-0.125
4/28/2023 14:31:00.640,-0.113,-1.023,-0.121
4/28/2023 14:31:00.650,-0.105,-1.012,-0.121
4/28/2023 14:31:00.660,-0.102,-1.004,-0.117
4/28/2023 14:31:00.670,-0.098,-1.008,-0.109
4/28/2023 14:31:00.680,-0.098,-1.008,-0.105
4/28/2023 14:31:00.690,-0.094,-1.016,-0.102
4/28/2023 14:31:00.700,-0.094,-1.016,-0.102
4/28/2023 14:31:00.710,-0.094,-1.023,-0.102
4/28/2023 14:31:00.720,-0.09,-1.031,-0.102
4/28/2023 14:31:00.730,-0.086,-1.031,-0.102
4/28/2023 14:31:00.740,-0.082,-1.035,-0.094
4/28/2023 14:31:00.750,-0.086,-1.031,-0.098
4/28/2023 14:31:00.760,-0.098,-1.027,-0.094
4/28/2023 14:31:00.770,-0.094,-1.023,-0.098
4/28/2023 14:31:00.780,-0.09,-1.023,-0.09
4/28/2023 14:31:00.790,-0.09,-1.023,-0.086
4/28/2023 14:31:00.800,-0.094,-1.02,-0.086
4/28/2023 14:31:00.810,-0.098,-1.02,-0.086
4/28/2023 14:31:00.820,-0.102,-1.027,-0.078
4/28/2023 14:31:00.830,-0.113,-1.039,-0.082
4/28/2023 14:31:00.840,-0.113,-1.043,-0.074
4/28/2023 14:31:00.850,-0.121,-1.051,-0.07
4/28/2023 14:31:00.860,-0.117,-1.051,-0.066
4/28/2023 14:31:00.870,-0.117,-1.055,-0.066
4/28/2023 14:31:00.880,-0.113,-1.051,-0.063
4/28/2023 14:31:00.890,-0.102,-1.043,-0.055
4/28/2023 14:31:00.900,-0.078,-1.02,-0.047
4/28/2023 14:31:00.910,-0.063,-1.008,-0.039
4/28/2023 14:31:00.920,-0.035,-1.008,-0.035
4/28/2023 14:31:00.930,-0.016,-1.016,-0.035
4/28/2023 14:31:00.940,-0.004,-1.016,-0.047
4/28/2023 14:31:00.950,0.008,-1.02,-0.059
4/28/2023 14:31:00.960,0.023,-1.02,-0.07
4/28/2023 14:31:00.970,0.023,-1.031,-0.086
4/28/2023 14:31:00.980,0.016,-1.035,-0.098
4/28/2023 14:31:00.990,0.004,-1.039,-0.102
4/28/2023 14:31:01.000,-0.02,-1.035,-0.109
4/28/2023 14:31:01.010,-0.035,-1.039,-0.105
4/28/2023 14:31:01.020,-0.055,-1.039,-0.109
4/28/2023 14:31:01.030,-0.086,-1.039,-0.105
4/28/2023 14:31:01.040,-0.109,-1.031,-0.102
4/28/2023 14:31:01.050,-0.117,-1.027,-0.094
4/28/2023 14:31:01.060,-0.125,-1.016,-0.086
4/28/2023 14:31:01.070,-0.117,-1.016,-0.078
4/28/2023 14:31:01.080,-0.105,-1.023,-0.078
4/28/2023 14:31:01.090,-0.094,-1.035,-0.078
4/28/2023 14:31:01.100,-0.094,-1.035,-0.082
4/28/2023 14:31:01.110,-0.102,-1.043,-0.086
4/28/2023 14:31:01.120,-0.117,-1.035,-0.082
4/28/2023 14:31:01.130,-0.125,-1.027,-0.074
4/28/2023 14:31:01.140,-0.121,-1.012,-0.07
4/28/2023 14:31:01.150,-0.113,-1,-0.066
4/28/2023 14:31:01.160,-0.098,-0.996,-0.066
4/28/2023 14:31:01.170,-0.094,-0.992,-0.066
4/28/2023 14:31:01.180,-0.09,-0.996,-0.07
4/28/2023 14:31:01.190,-0.078,-0.992,-0.066
4/28/2023 14:31:01.200,-0.07,-0.992,-0.063
4/28/2023 14:31:01.210,-0.07,-0.996,-0.063
4/28/2023 14:31:01.220,-0.066,-1,-0.066
4/28/2023 14:31:01.230,-0.059,-1.004,-0.063
4/28/2023 14:31:01.240,-0.055,-1.016,-0.059
4/28/2023 14:31:01.250,-0.047,-1.02,-0.063
4/28/2023 14:31:01.260,-0.047,-1.02,-0.066
4/28/2023 14:31:01.270,-0.055,-1.023,-0.066
4/28/2023 14:31:01.280,-0.063,-1.027,-0.07
4/28/2023 14:31:01.290,-0.07,-1.031,-0.07
4/28/2023 14:31:01.300,-0.078,-1.039,-0.078
4/28/2023 14:31:01.310,-0.078,-1.035,-0.078
4/28/2023 14:31:01.320,-0.082,-1.031,-0.074
4/28/2023 14:31:01.330,-0.082,-1.031,-0.07
4/28/2023 14:31:01.340,-0.082,-1.039,-0.07
4/28/2023 14:31:01.350,-0.086,-1.043,-0.066
4/28/2023 14:31:01.360,-0.082,-1.055,-0.066
4/28/2023 14:31:01.370,-0.074,-1.055,-0.066
4/28/2023 14:31:01.380,-0.07,-1.051,-0.063
4/28/2023 14:31:01.390,-0.07,-1.047,-0.066
4/28/2023 14:31:01.400,-0.074,-1.039,-0.066
4/28/2023 14:31:01.410,-0.074,-1.031,-0.063
4/28/2023 14:31:01.420,-0.078,-1.027,-0.063
4/28/2023 14:31:01.430,-0.078,-1.023,-0.066
4/28/2023 14:31:01.440,-0.082,-1.023,-0.066
4/28/2023 14:31:01.450,-0.086,-1.023,-0.066
4/28/2023 14:31:01.460,-0.086,-1.023,-0.063
4/28/2023 14:31:01.470,-0.094,-1.023,-0.063
4/28/2023 14:31:01.480,-0.094,-1.02,-0.066
4/28/2023 14:31:01.490,-0.102,-1.023,-0.059
4/28/2023 14:31:01.500,-0.113,-1.023,-0.055
4/28/2023 14:31:01.510,-0.109,-1.023,-0.055
4/28/2023 14:31:01.520,-0.113,-1.016,-0.059
4/28/2023 14:31:01.530,-0.109,-1.012,-0.055
4/28/2023 14:31:01.540,-0.113,-1.012,-0.059
4/28/2023 14:31:01.550,-0.117,-1.012,-0.063
4/28/2023 14:31:01.560,-0.117,-1.02,-0.066
4/28/2023 14:31:01.570,-0.121,-1.02,-0.063
4/28/2023 14:31:01.580,-0.125,-1.02,-0.066
4/28/2023 14:31:01.590,-0.129,-1.023,-0.063
4/28/2023 14:31:01.600,-0.125,-1.027,-0.063
4/28/2023 14:31:01.610,-0.129,-1.039,-0.066
4/28/2023 14:31:01.620,-0.133,-1.043,-0.074
4/28/2023 14:31:01.630,-0.133,-1.039,-0.078
4/28/2023 14:31:01.640,-0.137,-1.043,-0.074
4/28/2023 14:31:01.650,-0.152,-1.051,-0.074
4/28/2023 14:31:01.660,-0.164,-1.059,-0.078
4/28/2023 14:31:01.670,-0.172,-1.063,-0.086
4/28/2023 14:31:01.680,-0.184,-1.063,-0.082
4/28/2023 14:31:01.690,-0.195,-1.063,-0.082
4/28/2023 14:31:01.700,-0.203,-1.063,-0.074
4/28/2023 14:31:01.710,-0.207,-1.059,-0.074
4/28/2023 14:31:01.720,-0.211,-1.059,-0.07
4/28/2023 14:31:01.730,-0.203,-1.047,-0.066
4/28/2023 14:31:01.740,-0.191,-1.035,-0.063
4/28/2023 14:31:01.750,-0.176,-1.023,-0.059
4/28/2023 14:31:01.760,-0.152,-1.004,-0.047
4/28/2023 14:31:01.770,-0.121,-0.996,-0.035
4/28/2023 14:31:01.780,-0.098,-0.988,-0.035
4/28/2023 14:31:01.790,-0.078,-0.988,-0.043
4/28/2023 14:31:01.800,-0.07,-0.996,-0.055
4/28/2023 14:31:01.810,-0.074,-1.008,-0.07
4/28/2023 14:31:01.820,-0.086,-1.031,-0.086
4/28/2023 14:31:01.830,-0.102,-1.051,-0.098
4/28/2023 14:31:01.840,-0.125,-1.059,-0.109
4/28/2023 14:31:01.850,-0.141,-1.07,-0.113
4/28/2023 14:31:01.860,-0.156,-1.066,-0.117
4/28/2023 14:31:01.870,-0.168,-1.051,-0.105
4/28/2023 14:31:01.880,-0.172,-1.023,-0.094
4/28/2023 14:31:01.890,-0.172,-1.008,-0.078
4/28/2023 14:31:01.900,-0.168,-1.008,-0.066
4/28/2023 14:31:01.910,-0.164,-1.016,-0.066
4/28/2023 14:31:01.920,-0.156,-1.02,-0.07
4/28/2023 14:31:01.930,-0.148,-1.027,-0.066
4/28/2023 14:31:01.940,-0.141,-1.031,-0.07
4/28/2023 14:31:01.950,-0.133,-1.031,-0.082
4/28/2023 14:31:01.960,-0.129,-1.027,-0.086
4/28/2023 14:31:01.970,-0.129,-1.023,-0.09
4/28/2023 14:31:01.980,-0.121,-1.023,-0.09
4/28/2023 14:31:01.990,-0.117,-1.023,-0.09
4/28/2023 14:31:02.000,-0.125,-1.016,-0.09
4/28/2023 14:31:02.010,-0.113,-1.012,-0.078
4/28/2023 14:31:02.020,-0.113,-1.008,-0.082
4/28/2023 14:31:02.030,-0.109,-1.008,-0.078
4/28/2023 14:31:02.040,-0.109,-1.004,-0.074
4/28/2023 14:31:02.050,-0.105,-1.008,-0.074
4/28/2023 14:31:02.060,-0.102,-1.004,-0.078
4/28/2023 14:31:02.070,-0.098,-1.004,-0.086
4/28/2023 14:31:02.080,-0.098,-0.996,-0.082
4/28/2023 14:31:02.090,-0.09,-0.992,-0.082
4/28/2023 14:31:02.100,-0.086,-1,-0.086
4/28/2023 14:31:02.110,-0.082,-1,-0.086
4/28/2023 14:31:02.120,-0.086,-1.004,-0.086
4/28/2023 14:31:02.130,-0.086,-1,-0.09
4/28/2023 14:31:02.140,-0.086,-1,-0.082
4/28/2023 14:31:02.150,-0.09,-1.004,-0.074
4/28/2023 14:31:02.160,-0.094,-1.004,-0.074
4/28/2023 14:31:02.170,-0.094,-1.008,-0.07
4/28/2023 14:31:02.180,-0.094,-1.008,-0.074
4/28/2023 14:31:02.190,-0.09,-1.012,-0.082
4/28/2023 14:31:02.200,-0.09,-1.016,-0.09
4/28/2023 14:31:02.210,-0.086,-1.02,-0.09
4/28/2023 14:31:02.220,-0.074,-1.016,-0.098
4/28/2023 14:31:02.230,-0.07,-1.016,-0.098
4/28/2023 14:31:02.240,-0.063,-1.008,-0.094
4/28/2023 14:31:02.250,-0.066,-1.008,-0.098
4/28/2023 14:31:02.260,-0.063,-1.016,-0.098
4/28/2023 14:31:02.270,-0.059,-1.02,-0.102
4/28/2023 14:31:02.280,-0.063,-1.023,-0.105
4/28/2023 14:31:02.290,-0.063,-1.027,-0.105
4/28/2023 14:31:02.300,-0.063,-1.027,-0.105
4/28/2023 14:31:02.310,-0.07,-1.039,-0.109
4/28/2023 14:31:02.320,-0.078,-1.035,-0.102
4/28/2023 14:31:02.330,-0.082,-1.031,-0.105
4/28/2023 14:31:02.340,-0.082,-1.031,-0.102
4/28/2023 14:31:02.350,-0.082,-1.031,-0.105
4/28/2023 14:31:02.360,-0.082,-1.027,-0.105
4/28/2023 14:31:02.370,-0.086,-1.027,-0.117
4/28/2023 14:31:02.380,-0.09,-1.027,-0.117
4/28/2023 14:31:02.390,-0.09,-1.027,-0.113
4/28/2023 14:31:02.400,-0.086,-1.027,-0.117
4/28/2023 14:31:02.410,-0.09,-1.023,-0.113
4/28/2023 14:31:02.420,-0.09,-1.023,-0.117
4/28/2023 14:31:02.430,-0.086,-1.023,-0.125
4/28/2023 14:31:02.440,-0.09,-1.023,-0.125
4/28/2023 14:31:02.450,-0.094,-1.027,-0.133
4/28/2023 14:31:02.460,-0.094,-1.023,-0.137
4/28/2023 14:31:02.470,-0.094,-1.02,-0.141
4/28/2023 14:31:02.480,-0.09,-1.027,-0.141
4/28/2023 14:31:02.490,-0.09,-1.031,-0.145
4/28/2023 14:31:02.500,-0.109,-1.027,-0.156
4/28/2023 14:31:02.510,-0.105,-1.031,-0.156
4/28/2023 14:31:02.520,-0.109,-1.031,-0.16
4/28/2023 14:31:02.530,-0.113,-1.031,-0.164
4/28/2023 14:31:02.540,-0.113,-1.027,-0.16
4/28/2023 14:31:02.550,-0.113,-1.02,-0.16
4/28/2023 14:31:02.560,-0.125,-1.023,-0.16
4/28/2023 14:31:02.570,-0.125,-1.027,-0.164
4/28/2023 14:31:02.580,-0.129,-1.027,-0.172
4/28/2023 14:31:02.590,-0.133,-1.027,-0.176
4/28/2023 14:31:02.600,-0.137,-1.023,-0.176
4/28/2023 14:31:02.610,-0.141,-1.023,-0.176
4/28/2023 14:31:02.620,-0.141,-1.023,-0.18
4/28/2023 14:31:02.630,-0.141,-1.012,-0.18
4/28/2023 14:31:02.640,-0.145,-1.004,-0.18
4/28/2023 14:31:02.650,-0.148,-1.004,-0.172
4/28/2023 14:31:02.660,-0.152,-0.996,-0.168
4/28/2023 14:31:02.670,-0.152,-0.992,-0.164
4/28/2023 14:31:02.680,-0.148,-0.992,-0.164
4/28/2023 14:31:02.690,-0.148,-0.992,-0.164
4/28/2023 14:31:02.700,-0.145,-0.996,-0.16
4/28/2023 14:31:02.710,-0.145,-1,-0.168
4/28/2023 14:31:02.720,-0.145,-1,-0.168
4/28/2023 14:31:02.730,-0.141,-1.004,-0.172
4/28/2023 14:31:02.740,-0.141,-1.008,-0.172
4/28/2023 14:31:02.750,-0.145,-1.016,-0.172
4/28/2023 14:31:02.760,-0.152,-1.02,-0.164
4/28/2023 14:31:02.770,-0.168,-1.016,-0.168
4/28/2023 14:31:02.780,-0.188,-1.008,-0.172
4/28/2023 14:31:02.790,-0.215,-0.992,-0.164
4/28/2023 14:31:02.800,-0.242,-0.98,-0.152
4/28/2023 14:31:02.810,-0.262,-0.992,-0.145
4/28/2023 14:31:02.820,-0.285,-1.016,-0.137
4/28/2023 14:31:02.830,-0.297,-1.031,-0.137
4/28/2023 14:31:02.840,-0.297,-1.027,-0.137
4/28/2023 14:31:02.850,-0.277,-1.023,-0.152
4/28/2023 14:31:02.860,-0.258,-1.023,-0.188
4/28/2023 14:31:02.870,-0.238,-1.039,-0.199
4/28/2023 14:31:02.880,-0.242,-1.074,-0.188
4/28/2023 14:31:02.890,-0.254,-1.086,-0.191
4/28/2023 14:31:02.900,-0.25,-1.066,-0.219
4/28/2023 14:31:02.910,-0.25,-1.055,-0.254
4/28/2023 14:31:02.920,-0.254,-1.059,-0.277
4/28/2023 14:31:02.930,-0.266,-1.031,-0.273
4/28/2023 14:31:02.940,-0.242,-0.977,-0.23
4/28/2023 14:31:02.950,-0.191,-0.93,-0.188
4/28/2023 14:31:02.960,-0.172,-0.918,-0.168
4/28/2023 14:31:02.970,-0.168,-0.922,-0.137
4/28/2023 14:31:02.980,-0.145,-0.941,-0.113
4/28/2023 14:31:02.990,-0.113,-0.973,-0.09
4/28/2023 14:31:03.000,-0.086,-1.016,-0.094
4/28/2023 14:31:03.010,-0.023,-1.059,-0.109
4/28/2023 14:31:03.020,0.031,-1.098,-0.141
4/28/2023 14:31:03.030,0.086,-1.117,-0.148
4/28/2023 14:31:03.040,0.137,-1.117,-0.137
4/28/2023 14:31:03.050,0.184,-1.094,-0.117
4/28/2023 14:31:03.060,0.199,-1.074,-0.094
4/28/2023 14:31:03.070,0.184,-1.066,-0.059
4/28/2023 14:31:03.080,0.152,-1.047,-0.031
4/28/2023 14:31:03.090,0.117,-1.027,-0.004
4/28/2023 14:31:03.100,0.082,-1.027,0.012
4/28/2023 14:31:03.110,0.047,-1.023,0.023
4/28/2023 14:31:03.120,0.016,-1.031,0.012
4/28/2023 14:31:03.130,-0.008,-1.043,-0.012
4/28/2023 14:31:03.140,-0.027,-1.055,-0.027
4/28/2023 14:31:03.150,-0.031,-1.051,-0.027
4/28/2023 14:31:03.160,-0.031,-1.043,-0.027
4/28/2023 14:31:03.170,-0.016,-1.043,-0.031
4/28/2023 14:31:03.180,0.004,-1.043,-0.035
4/28/2023 14:31:03.190,0.023,-1.051,-0.047
4/28/2023 14:31:03.200,0.031,-1.047,-0.059
4/28/2023 14:31:03.210,0.023,-1.047,-0.059
4/28/2023 14:31:03.220,0,-1.043,-0.051
4/28/2023 14:31:03.230,-0.027,-1.027,-0.051
4/28/2023 14:31:03.240,-0.035,-1.004,-0.043
4/28/2023 14:31:03.250,-0.035,-0.984,-0.039
4/28/2023 14:31:03.260,-0.043,-0.969,-0.035
4/28/2023 14:31:03.270,-0.055,-0.957,-0.035
4/28/2023 14:31:03.280,-0.063,-0.945,-0.043
4/28/2023 14:31:03.290,-0.074,-0.945,-0.055
4/28/2023 14:31:03.300,-0.078,-0.949,-0.07
4/28/2023 14:31:03.310,-0.082,-0.957,-0.078
4/28/2023 14:31:03.320,-0.094,-0.965,-0.082
4/28/2023 14:31:03.330,-0.109,-0.973,-0.086
4/28/2023 14:31:03.340,-0.113,-0.969,-0.078
4/28/2023 14:31:03.350,-0.109,-0.965,-0.066
4/28/2023 14:31:03.360,-0.109,-0.961,-0.066
4/28/2023 14:31:03.370,-0.117,-0.969,-0.074
4/28/2023 14:31:03.380,-0.121,-0.98,-0.082
4/28/2023 14:31:03.390,-0.133,-0.996,-0.078
4/28/2023 14:31:03.400,-0.148,-1.008,-0.07
4/28/2023 14:31:03.410,-0.164,-1.004,-0.086
4/28/2023 14:31:03.420,-0.176,-0.992,-0.094
4/28/2023 14:31:03.430,-0.176,-0.984,-0.082
4/28/2023 14:31:03.440,-0.188,-0.973,-0.074
4/28/2023 14:31:03.450,-0.199,-0.98,-0.078
4/28/2023 14:31:03.460,-0.219,-1.004,-0.078
4/28/2023 14:31:03.470,-0.246,-1.047,-0.078
4/28/2023 14:31:03.480,-0.266,-1.078,-0.07
4/28/2023 14:31:03.490,-0.273,-1.078,-0.066
4/28/2023 14:31:03.500,-0.293,-1.074,-0.063
4/28/2023 14:31:03.510,-0.289,-1.07,-0.047
4/28/2023 14:31:03.520,-0.297,-1.066,-0.039
4/28/2023 14:31:03.530,-0.309,-1.063,-0.035
4/28/2023 14:31:03.540,-0.316,-1.07,-0.031
4/28/2023 14:31:03.550,-0.313,-1.086,-0.031
4/28/2023 14:31:03.560,-0.305,-1.117,-0.043
4/28/2023 14:31:03.570,-0.293,-1.164,-0.055
4/28/2023 14:31:03.580,-0.262,-1.211,-0.074
4/28/2023 14:31:03.590,-0.266,-1.203,-0.164
4/28/2023 14:31:03.600,-0.387,-1.16,-0.316
4/28/2023 14:31:03.610,-0.52,-1.164,-0.383
4/28/2023 14:31:03.620,-0.559,-1.266,-0.309
4/28/2023 14:31:03.630,-0.492,-1.336,-0.27
4/28/2023 14:31:03.640,-0.375,-1.34,-0.293
4/28/2023 14:31:03.650,-0.289,-1.285,-0.297
4/28/2023 14:31:03.660,-0.281,-1.215,-0.285
4/28/2023 14:31:03.670,-0.352,-1.188,-0.34
4/28/2023 14:31:03.680,-0.367,-1.16,-0.395
4/28/2023 14:31:03.690,-0.293,-1.184,-0.453
4/28/2023 14:31:03.700,-0.172,-1.195,-0.492
4/28/2023 14:31:03.710,-0.082,-1.172,-0.488
4/28/2023 14:31:03.720,-0.059,-1.102,-0.453
4/28/2023 14:31:03.730,-0.137,-1.008,-0.422
4/28/2023 14:31:03.740,-0.27,-0.938,-0.457
4/28/2023 14:31:03.750,-0.406,-0.875,-0.496
4/28/2023 14:31:03.760,-0.484,-0.816,-0.504
4/28/2023 14:31:03.770,-0.504,-0.762,-0.469
4/28/2023 14:31:03.780,-0.508,-0.734,-0.406
4/28/2023 14:31:03.790,-0.512,-0.723,-0.324
4/28/2023 14:31:03.800,-0.504,-0.719,-0.27
4/28/2023 14:31:03.810,-0.477,-0.707,-0.258
4/28/2023 14:31:03.820,-0.43,-0.715,-0.273
4/28/2023 14:31:03.830,-0.336,-0.75,-0.305
4/28/2023 14:31:03.840,-0.223,-0.773,-0.305
4/28/2023 14:31:03.850,-0.156,-0.789,-0.289
4/28/2023 14:31:03.860,-0.133,-0.777,-0.277
4/28/2023 14:31:03.870,-0.137,-0.754,-0.254
4/28/2023 14:31:03.880,-0.145,-0.723,-0.227
4/28/2023 14:31:03.890,-0.172,-0.711,-0.215
4/28/2023 14:31:03.900,-0.211,-0.699,-0.211
4/28/2023 14:31:03.910,-0.254,-0.672,-0.223
4/28/2023 14:31:03.920,-0.281,-0.668,-0.234
4/28/2023 14:31:03.930,-0.242,-0.695,-0.223
4/28/2023 14:31:03.940,-0.176,-0.73,-0.199
4/28/2023 14:31:03.950,-0.121,-0.762,-0.195
4/28/2023 14:31:03.960,-0.082,-0.77,-0.199
4/28/2023 14:31:03.970,-0.063,-0.781,-0.199
4/28/2023 14:31:03.980,-0.074,-0.793,-0.195
4/28/2023 14:31:03.990,-0.113,-0.801,-0.195
4/28/2023 14:31:04.000,-0.172,-0.809,-0.207
4/28/2023 14:31:04.010,-0.223,-0.828,-0.211
4/28/2023 14:31:04.020,-0.27,-0.844,-0.227
4/28/2023 14:31:04.030,-0.289,-0.859,-0.242
4/28/2023 14:31:04.040,-0.301,-0.883,-0.246
4/28/2023 14:31:04.050,-0.301,-0.934,-0.238
4/28/2023 14:31:04.060,-0.301,-1.004,-0.227
4/28/2023 14:31:04.070,-0.309,-1.082,-0.23
4/28/2023 14:31:04.080,-0.313,-1.16,-0.234
4/28/2023 14:31:04.090,-0.301,-1.227,-0.227
4/28/2023 14:31:04.100,-0.258,-1.262,-0.215
4/28/2023 14:31:04.110,-0.152,-1.223,-0.195
4/28/2023 14:31:04.120,-0.02,-1.168,-0.172
4/28/2023 14:31:04.130,0.094,-1.137,-0.152
4/28/2023 14:31:04.140,0.219,-1.129,-0.145
4/28/2023 14:31:04.150,0.32,-1.152,-0.141
4/28/2023 14:31:04.160,0.355,-1.184,-0.133
4/28/2023 14:31:04.170,0.227,-1.223,-0.145
4/28/2023 14:31:04.180,-0.098,-1.301,-0.309
4/28/2023 14:31:04.190,-0.402,-1.477,-0.547
4/28/2023 14:31:04.200,-0.477,-1.664,-0.605
4/28/2023 14:31:04.210,-0.434,-1.695,-0.531
4/28/2023 14:31:04.220,-0.43,-1.566,-0.547
4/28/2023 14:31:04.230,-0.449,-1.383,-0.637
4/28/2023 14:31:04.240,-0.516,-1.215,-0.652
4/28/2023 14:31:04.250,-0.617,-1.074,-0.602
4/28/2023 14:31:04.260,-0.688,-0.926,-0.43
4/28/2023 14:31:04.270,-0.668,-0.703,-0.219
4/28/2023 14:31:04.280,-0.602,-0.512,-0.078
4/28/2023 14:31:04.290,-0.531,-0.496,-0.047
4/28/2023 14:31:04.300,-0.512,-0.68,-0.109
4/28/2023 14:31:04.310,-0.512,-0.941,-0.215
4/28/2023 14:31:04.320,-0.484,-1.137,-0.324
4/28/2023 14:31:04.330,-0.461,-1.262,-0.391
4/28/2023 14:31:04.340,-0.441,-1.328,-0.422
4/28/2023 14:31:04.350,-0.383,-1.348,-0.41
4/28/2023 14:31:04.360,-0.289,-1.32,-0.395
4/28/2023 14:31:04.370,-0.172,-1.242,-0.379
4/28/2023 14:31:04.380,-0.074,-1.137,-0.359
4/28/2023 14:31:04.390,-0.008,-1.02,-0.32
4/28/2023 14:31:04.400,0.004,-0.918,-0.27
4/28/2023 14:31:04.410,-0.016,-0.824,-0.23
4/28/2023 14:31:04.420,-0.031,-0.727,-0.199
4/28/2023 14:31:04.430,-0.047,-0.656,-0.148
4/28/2023 14:31:04.440,-0.078,-0.605,-0.125
4/28/2023 14:31:04.450,-0.121,-0.574,-0.102
4/28/2023 14:31:04.460,-0.168,-0.578,-0.082
4/28/2023 14:31:04.470,-0.207,-0.602,-0.074
4/28/2023 14:31:04.480,-0.234,-0.641,-0.078
4/28/2023 14:31:04.490,-0.25,-0.707,-0.078
4/28/2023 14:31:04.500,-0.27,-0.766,-0.09
4/28/2023 14:31:04.510,-0.262,-0.82,-0.109
4/28/2023 14:31:04.520,-0.25,-0.84,-0.121
4/28/2023 14:31:04.530,-0.227,-0.836,-0.121
4/28/2023 14:31:04.540,-0.207,-0.813,-0.109
4/28/2023 14:31:04.550,-0.176,-0.77,-0.086
4/28/2023 14:31:04.560,-0.141,-0.719,-0.059
4/28/2023 14:31:04.570,-0.125,-0.676,-0.047
4/28/2023 14:31:04.580,-0.102,-0.68,-0.055
4/28/2023 14:31:04.590,-0.078,-0.703,-0.07
4/28/2023 14:31:04.600,-0.055,-0.754,-0.105
4/28/2023 14:31:04.610,-0.039,-0.824,-0.176
4/28/2023 14:31:04.620,-0.059,-0.918,-0.234
4/28/2023 14:31:04.630,-0.109,-1.039,-0.234
4/28/2023 14:31:04.640,-0.176,-1.176,-0.184
4/28/2023 14:31:04.650,-0.25,-1.281,-0.117
4/28/2023 14:31:04.660,-0.332,-1.355,-0.078
4/28/2023 14:31:04.670,-0.41,-1.434,-0.055
4/28/2023 14:31:04.680,-0.441,-1.52,-0.047
4/28/2023 14:31:04.690,-0.484,-1.547,-0.105
4/28/2023 14:31:04.700,-0.512,-1.559,-0.195
4/28/2023 14:31:04.710,-0.504,-1.578,-0.297
4/28/2023 14:31:04.720,-0.477,-1.613,-0.375
4/28/2023 14:31:04.730,-0.445,-1.59,-0.465
4/28/2023 14:31:04.740,-0.465,-1.484,-0.566
4/28/2023 14:31:04.750,-0.531,-1.395,-0.602
4/28/2023 14:31:04.760,-0.582,-1.316,-0.586
4/28/2023 14:31:04.770,-0.617,-1.203,-0.531
4/28/2023 14:31:04.780,-0.633,-1.086,-0.445
4/28/2023 14:31:04.790,-0.566,-0.934,-0.332
4/28/2023 14:31:04.800,-0.453,-0.793,-0.242
4/28/2023 14:31:04.810,-0.371,-0.699,-0.238
4/28/2023 14:31:04.820,-0.348,-0.672,-0.363
4/28/2023 14:31:04.830,-0.324,-0.734,-0.527
4/28/2023 14:31:04.840,-0.258,-0.855,-0.625
4/28/2023 14:31:04.850,-0.223,-0.969,-0.633
4/28/2023 14:31:04.860,-0.262,-1.012,-0.578
4/28/2023 14:31:04.870,-0.301,-0.945,-0.469
4/28/2023 14:31:04.880,-0.297,-0.813,-0.344
4/28/2023 14:31:04.890,-0.293,-0.699,-0.246
4/28/2023 14:31:04.900,-0.324,-0.652,-0.203
4/28/2023 14:31:04.910,-0.359,-0.664,-0.188
4/28/2023 14:31:04.920,-0.379,-0.691,-0.172
4/28/2023 14:31:04.930,-0.41,-0.715,-0.145
4/28/2023 14:31:04.940,-0.418,-0.707,-0.129
4/28/2023 14:31:04.950,-0.379,-0.668,-0.125
4/28/2023 14:31:04.960,-0.324,-0.617,-0.145
4/28/2023 14:31:04.970,-0.293,-0.59,-0.184
4/28/2023 14:31:04.980,-0.297,-0.59,-0.23
4/28/2023 14:31:04.990,-0.285,-0.621,-0.27
4/28/2023 14:31:05.000,-0.25,-0.672,-0.27
4/28/2023 14:31:05.010,-0.164,-0.719,-0.246
4/28/2023 14:31:05.020,-0.07,-0.746,-0.23
4/28/2023 14:31:05.030,-0.008,-0.754,-0.203
4/28/2023 14:31:05.040,0.035,-0.75,-0.168
4/28/2023 14:31:05.050,0.051,-0.742,-0.156
4/28/2023 14:31:05.060,0.059,-0.723,-0.164
4/28/2023 14:31:05.070,0.047,-0.699,-0.176
4/28/2023 14:31:05.080,0.027,-0.672,-0.199
4/28/2023 14:31:05.090,-0.02,-0.645,-0.215
4/28/2023 14:31:05.100,-0.074,-0.637,-0.227
4/28/2023 14:31:05.110,-0.137,-0.668,-0.219
4/28/2023 14:31:05.120,-0.203,-0.762,-0.219
4/28/2023 14:31:05.130,-0.281,-0.91,-0.234
4/28/2023 14:31:05.140,-0.375,-1.082,-0.273
4/28/2023 14:31:05.150,-0.434,-1.238,-0.313
4/28/2023 14:31:05.160,-0.414,-1.336,-0.324
4/28/2023 14:31:05.170,-0.293,-1.332,-0.348
4/28/2023 14:31:05.180,-0.066,-1.285,-0.324
4/28/2023 14:31:05.190,0.156,-1.277,-0.262
4/28/2023 14:31:05.200,0.336,-1.27,-0.262
4/28/2023 14:31:05.210,0.457,-1.273,-0.273
4/28/2023 14:31:05.220,0.469,-1.293,-0.242
4/28/2023 14:31:05.230,0.281,-1.324,-0.219
4/28/2023 14:31:05.240,-0.078,-1.34,-0.387
4/28/2023 14:31:05.250,-0.422,-1.453,-0.574
4/28/2023 14:31:05.260,-0.594,-1.625,-0.57
4/28/2023 14:31:05.270,-0.617,-1.625,-0.605
4/28/2023 14:31:05.280,-0.574,-1.484,-0.691
4/28/2023 14:31:05.290,-0.543,-1.32,-0.75
4/28/2023 14:31:05.300,-0.551,-1.211,-0.676
4/28/2023 14:31:05.310,-0.559,-1.047,-0.52
4/28/2023 14:31:05.320,-0.563,-0.793,-0.305
4/28/2023 14:31:05.330,-0.543,-0.531,-0.145
4/28/2023 14:31:05.340,-0.527,-0.453,-0.082
4/28/2023 14:31:05.350,-0.531,-0.68,-0.078
4/28/2023 14:31:05.360,-0.566,-0.988,-0.18
4/28/2023 14:31:05.370,-0.57,-1.223,-0.305
4/28/2023 14:31:05.380,-0.539,-1.402,-0.352
4/28/2023 14:31:05.390,-0.508,-1.527,-0.363
4/28/2023 14:31:05.400,-0.473,-1.566,-0.367
4/28/2023 14:31:05.410,-0.387,-1.535,-0.383
4/28/2023 14:31:05.420,-0.246,-1.465,-0.398
4/28/2023 14:31:05.430,-0.09,-1.348,-0.391
4/28/2023 14:31:05.440,0.043,-1.176,-0.352
4/28/2023 14:31:05.450,0.094,-0.984,-0.289
4/28/2023 14:31:05.460,0.082,-0.828,-0.215
4/28/2023 14:31:05.470,0.066,-0.695,-0.16
4/28/2023 14:31:05.480,0.055,-0.602,-0.109
4/28/2023 14:31:05.490,0.035,-0.535,-0.07
4/28/2023 14:31:05.500,-0.031,-0.484,-0.047
4/28/2023 14:31:05.510,-0.086,-0.469,-0.047
4/28/2023 14:31:05.520,-0.152,-0.488,-0.039
4/28/2023 14:31:05.530,-0.211,-0.516,-0.051
4/28/2023 14:31:05.540,-0.246,-0.543,-0.063
4/28/2023 14:31:05.550,-0.266,-0.598,-0.07
4/28/2023 14:31:05.560,-0.258,-0.66,-0.074
4/28/2023 14:31:05.570,-0.27,-0.719,-0.078
4/28/2023 14:31:05.580,-0.301,-0.742,-0.094
4/28/2023 14:31:05.590,-0.309,-0.75,-0.078
4/28/2023 14:31:05.600,-0.301,-0.75,-0.035
4/28/2023 14:31:05.610,-0.262,-0.734,0.004
4/28/2023 14:31:05.620,-0.223,-0.707,0.027
4/28/2023 14:31:05.630,-0.191,-0.68,0.012
4/28/2023 14:31:05.640,-0.148,-0.672,-0.02
4/28/2023 14:31:05.650,-0.09,-0.699,-0.043
4/28/2023 14:31:05.660,-0.055,-0.77,-0.055
4/28/2023 14:31:05.670,-0.078,-0.863,-0.066
4/28/2023 14:31:05.680,-0.152,-0.969,-0.094
4/28/2023 14:31:05.690,-0.27,-1.082,-0.121
4/28/2023 14:31:05.700,-0.367,-1.242,-0.121
4/28/2023 14:31:05.710,-0.391,-1.418,-0.055
4/28/2023 14:31:05.720,-0.336,-1.508,0.047
4/28/2023 14:31:05.730,-0.254,-1.555,0.129
4/28/2023 14:31:05.740,-0.184,-1.555,0.109
4/28/2023 14:31:05.750,-0.168,-1.492,-0.078
4/28/2023 14:31:05.760,-0.219,-1.5,-0.277
4/28/2023 14:31:05.770,-0.32,-1.574,-0.375
4/28/2023 14:31:05.780,-0.469,-1.625,-0.391
4/28/2023 14:31:05.790,-0.613,-1.496,-0.508
4/28/2023 14:31:05.800,-0.664,-1.266,-0.633
4/28/2023 14:31:05.810,-0.648,-1.195,-0.566
4/28/2023 14:31:05.820,-0.668,-1.18,-0.496
4/28/2023 14:31:05.830,-0.691,-1.055,-0.461
4/28/2023 14:31:05.840,-0.66,-0.867,-0.445
4/28/2023 14:31:05.850,-0.602,-0.758,-0.445
4/28/2023 14:31:05.860,-0.551,-0.797,-0.477
4/28/2023 14:31:05.870,-0.465,-0.914,-0.508
4/28/2023 14:31:05.880,-0.359,-1.016,-0.527
4/28/2023 14:31:05.890,-0.277,-1.035,-0.539
4/28/2023 14:31:05.900,-0.227,-1,-0.492
4/28/2023 14:31:05.910,-0.195,-0.957,-0.391
4/28/2023 14:31:05.920,-0.184,-0.863,-0.313
4/28/2023 14:31:05.930,-0.184,-0.766,-0.254
4/28/2023 14:31:05.940,-0.215,-0.691,-0.223
4/28/2023 14:31:05.950,-0.27,-0.656,-0.195
4/28/2023 14:31:05.960,-0.332,-0.672,-0.156
4/28/2023 14:31:05.970,-0.402,-0.699,-0.133
4/28/2023 14:31:05.980,-0.441,-0.699,-0.129
4/28/2023 14:31:05.990,-0.445,-0.699,-0.129
4/28/2023 14:31:06.000,-0.418,-0.672,-0.137
4/28/2023 14:31:06.010,-0.359,-0.645,-0.145
4/28/2023 14:31:06.020,-0.305,-0.621,-0.164
4/28/2023 14:31:06.030,-0.262,-0.621,-0.18
4/28/2023 14:31:06.040,-0.203,-0.641,-0.188
4/28/2023 14:31:06.050,-0.125,-0.664,-0.184
4/28/2023 14:31:06.060,-0.043,-0.695,-0.168
4/28/2023 14:31:06.070,0.027,-0.727,-0.16
4/28/2023 14:31:06.080,0.09,-0.758,-0.148
4/28/2023 14:31:06.090,0.133,-0.789,-0.141
4/28/2023 14:31:06.100,0.141,-0.813,-0.145
4/28/2023 14:31:06.110,0.133,-0.824,-0.16
4/28/2023 14:31:06.120,0.117,-0.82,-0.184
4/28/2023 14:31:06.130,0.09,-0.805,-0.191
4/28/2023 14:31:06.140,0.055,-0.781,-0.191
4/28/2023 14:31:06.150,-0.012,-0.75,-0.191
4/28/2023 14:31:06.160,-0.105,-0.75,-0.184
4/28/2023 14:31:06.170,-0.215,-0.789,-0.188
4/28/2023 14:31:06.180,-0.309,-0.867,-0.207
4/28/2023 14:31:06.190,-0.398,-1.008,-0.234
4/28/2023 14:31:06.200,-0.453,-1.16,-0.262
4/28/2023 14:31:06.210,-0.406,-1.254,-0.289
4/28/2023 14:31:06.220,-0.23,-1.254,-0.297
4/28/2023 14:31:06.230,0.039,-1.219,-0.266
4/28/2023 14:31:06.240,0.277,-1.23,-0.223
4/28/2023 14:31:06.250,0.418,-1.293,-0.223
4/28/2023 14:31:06.260,0.398,-1.379,-0.246
4/28/2023 14:31:06.270,0.18,-1.473,-0.336
4/28/2023 14:31:06.280,-0.105,-1.582,-0.477
4/28/2023 14:31:06.290,-0.324,-1.734,-0.484
4/28/2023 14:31:06.300,-0.402,-1.77,-0.441
4/28/2023 14:31:06.310,-0.438,-1.684,-0.48
4/28/2023 14:31:06.320,-0.418,-1.484,-0.586
4/28/2023 14:31:06.330,-0.387,-1.285,-0.617
4/28/2023 14:31:06.340,-0.461,-1.156,-0.602
4/28/2023 14:31:06.350,-0.613,-1.016,-0.488
4/28/2023 14:31:06.360,-0.656,-0.773,-0.352
4/28/2023 14:31:06.370,-0.574,-0.566,-0.219
4/28/2023 14:31:06.380,-0.52,-0.645,-0.082
4/28/2023 14:31:06.390,-0.555,-0.918,-0.066
4/28/2023 14:31:06.400,-0.578,-1.129,-0.184
4/28/2023 14:31:06.410,-0.516,-1.281,-0.266
4/28/2023 14:31:06.420,-0.43,-1.391,-0.273
4/28/2023 14:31:06.430,-0.383,-1.402,-0.316
4/28/2023 14:31:06.440,-0.41,-1.348,-0.383
4/28/2023 14:31:06.450,-0.281,-1.375,-0.285
4/28/2023 14:31:06.460,-0.023,-1.398,-0.164
4/28/2023 14:31:06.470,0.141,-1.246,-0.18
4/28/2023 14:31:06.480,0.219,-1.039,-0.191
4/28/2023 14:31:06.490,0.051,-0.836,-0.328
4/28/2023 14:31:06.500,-0.02,-0.738,-0.242
4/28/2023 14:31:06.510,0.094,-0.645,-0.082
4/28/2023 14:31:06.520,0.141,-0.523,-0.039
4/28/2023 14:31:06.530,0.078,-0.449,-0.047
4/28/2023 14:31:06.540,-0.008,-0.43,-0.031
4/28/2023 14:31:06.550,-0.066,-0.438,-0.012
4/28/2023 14:31:06.560,-0.121,-0.449,-0.012
4/28/2023 14:31:06.570,-0.168,-0.461,-0.027
4/28/2023 14:31:06.580,-0.199,-0.496,-0.043
4/28/2023 14:31:06.590,-0.23,-0.566,-0.031
4/28/2023 14:31:06.600,-0.258,-0.648,-0.012
4/28/2023 14:31:06.610,-0.289,-0.727,-0.016
4/28/2023 14:31:06.620,-0.309,-0.77,-0.031
4/28/2023 14:31:06.630,-0.309,-0.793,-0.035
4/28/2023 14:31:06.640,-0.301,-0.82,0
4/28/2023 14:31:06.650,-0.281,-0.813,0
4/28/2023 14:31:06.660,-0.25,-0.773,-0.039
4/28/2023 14:31:06.670,-0.184,-0.754,-0.063
4/28/2023 14:31:06.680,-0.113,-0.77,-0.059
4/28/2023 14:31:06.690,-0.078,-0.813,-0.059
4/28/2023 14:31:06.700,-0.094,-0.918,-0.078
4/28/2023 14:31:06.710,-0.176,-1.09,-0.098
4/28/2023 14:31:06.720,-0.262,-1.27,-0.129
4/28/2023 14:31:06.730,-0.336,-1.41,-0.098
4/28/2023 14:31:06.740,-0.359,-1.516,0.023
4/28/2023 14:31:06.750,-0.324,-1.531,0.145
4/28/2023 14:31:06.760,-0.25,-1.492,0.172
4/28/2023 14:31:06.770,-0.215,-1.426,0.004
4/28/2023 14:31:06.780,-0.27,-1.457,-0.195
4/28/2023 14:31:06.790,-0.34,-1.555,-0.305
4/28/2023 14:31:06.800,-0.441,-1.652,-0.363
4/28/2023 14:31:06.810,-0.578,-1.648,-0.477
4/28/2023 14:31:06.820,-0.656,-1.406,-0.668
4/28/2023 14:31:06.830,-0.66,-1.277,-0.609
4/28/2023 14:31:06.840,-0.668,-1.285,-0.461
4/28/2023 14:31:06.850,-0.684,-1.156,-0.418
4/28/2023 14:31:06.860,-0.645,-0.953,-0.395
4/28/2023 14:31:06.870,-0.543,-0.777,-0.375
4/28/2023 14:31:06.880,-0.469,-0.734,-0.406
4/28/2023 14:31:06.890,-0.387,-0.816,-0.469
4/28/2023 14:31:06.900,-0.289,-0.934,-0.539
4/28/2023 14:31:06.910,-0.215,-1.012,-0.582
4/28/2023 14:31:06.920,-0.195,-1.043,-0.57
4/28/2023 14:31:06.930,-0.195,-1.02,-0.488
4/28/2023 14:31:06.940,-0.199,-0.934,-0.367
4/28/2023 14:31:06.950,-0.211,-0.813,-0.281
4/28/2023 14:31:06.960,-0.242,-0.719,-0.234
4/28/2023 14:31:06.970,-0.277,-0.688,-0.199
4/28/2023 14:31:06.980,-0.313,-0.691,-0.184
4/28/2023 14:31:06.990,-0.371,-0.711,-0.156
4/28/2023 14:31:07.000,-0.43,-0.711,-0.145
4/28/2023 14:31:07.010,-0.441,-0.695,-0.129
4/28/2023 14:31:07.020,-0.43,-0.668,-0.125
4/28/2023 14:31:07.030,-0.406,-0.629,-0.137
4/28/2023 14:31:07.040,-0.387,-0.59,-0.164
4/28/2023 14:31:07.050,-0.375,-0.57,-0.191
4/28/2023 14:31:07.060,-0.328,-0.578,-0.207
4/28/2023 14:31:07.070,-0.25,-0.605,-0.211
4/28/2023 14:31:07.080,-0.16,-0.621,-0.215
4/28/2023 14:31:07.090,-0.078,-0.633,-0.199
4/28/2023 14:31:07.100,-0.027,-0.645,-0.18
4/28/2023 14:31:07.110,-0.012,-0.656,-0.176
4/28/2023 14:31:07.120,0.004,-0.68,-0.176
4/28/2023 14:31:07.130,0.008,-0.699,-0.176
4/28/2023 14:31:07.140,0,-0.723,-0.188
4/28/2023 14:31:07.150,-0.023,-0.75,-0.211
4/28/2023 14:31:07.160,-0.047,-0.785,-0.227
4/28/2023 14:31:07.170,-0.059,-0.832,-0.211
4/28/2023 14:31:07.180,-0.082,-0.914,-0.191
4/28/2023 14:31:07.190,-0.125,-1.016,-0.164
4/28/2023 14:31:07.200,-0.164,-1.094,-0.16
4/28/2023 14:31:07.210,-0.199,-1.133,-0.184
4/28/2023 14:31:07.220,-0.203,-1.164,-0.191
4/28/2023 14:31:07.230,-0.164,-1.191,-0.188
4/28/2023 14:31:07.240,-0.051,-1.199,-0.203
4/28/2023 14:31:07.250,0.148,-1.184,-0.203
4/28/2023 14:31:07.260,0.355,-1.199,-0.188
4/28/2023 14:31:07.270,0.492,-1.258,-0.18
4/28/2023 14:31:07.280,0.465,-1.352,-0.172
4/28/2023 14:31:07.290,0.199,-1.461,-0.191
4/28/2023 14:31:07.300,-0.168,-1.527,-0.375
4/28/2023 14:31:07.310,-0.559,-1.633,-0.488
4/28/2023 14:31:07.320,-0.797,-1.699,-0.535
4/28/2023 14:31:07.330,-0.82,-1.691,-0.57
4/28/2023 14:31:07.340,-0.691,-1.609,-0.645
4/28/2023 14:31:07.350,-0.586,-1.477,-0.715
4/28/2023 14:31:07.360,-0.539,-1.328,-0.656
4/28/2023 14:31:07.370,-0.508,-1.086,-0.473
4/28/2023 14:31:07.380,-0.477,-0.723,-0.273
4/28/2023 14:31:07.390,-0.465,-0.438,-0.145
4/28/2023 14:31:07.400,-0.5,-0.496,-0.094
4/28/2023 14:31:07.410,-0.547,-0.789,-0.141
4/28/2023 14:31:07.420,-0.57,-1.059,-0.27
4/28/2023 14:31:07.430,-0.574,-1.258,-0.352
4/28/2023 14:31:07.440,-0.559,-1.418,-0.375
4/28/2023 14:31:07.450,-0.531,-1.504,-0.379
4/28/2023 14:31:07.460,-0.492,-1.516,-0.375
4/28/2023 14:31:07.470,-0.41,-1.457,-0.348
4/28/2023 14:31:07.480,-0.289,-1.359,-0.313
4/28/2023 14:31:07.490,-0.164,-1.215,-0.277
4/28/2023 14:31:07.500,-0.082,-1.043,-0.238
4/28/2023 14:31:07.510,-0.023,-0.883,-0.191
4/28/2023 14:31:07.520,-0.004,-0.746,-0.176
4/28/2023 14:31:07.530,0,-0.645,-0.156
4/28/2023 14:31:07.540,0.008,-0.57,-0.125
4/28/2023 14:31:07.550,0.008,-0.523,-0.098
4/28/2023 14:31:07.560,-0.023,-0.496,-0.078
4/28/2023 14:31:07.570,-0.074,-0.473,-0.063
4/28/2023 14:31:07.580,-0.133,-0.461,-0.039
4/28/2023 14:31:07.590,-0.188,-0.457,-0.023
4/28/2023 14:31:07.600,-0.211,-0.477,-0.008
4/28/2023 14:31:07.610,-0.238,-0.52,0.016
4/28/2023 14:31:07.620,-0.254,-0.559,0.008
4/28/2023 14:31:07.630,-0.258,-0.586,-0.004
4/28/2023 14:31:07.640,-0.266,-0.625,-0.016
4/28/2023 14:31:07.650,-0.273,-0.676,-0.012
4/28/2023 14:31:07.660,-0.266,-0.707,0
4/28/2023 14:31:07.670,-0.262,-0.734,0.012
4/28/2023 14:31:07.680,-0.227,-0.75,0
4/28/2023 14:31:07.690,-0.168,-0.75,-0.031
4/28/2023 14:31:07.700,-0.109,-0.746,-0.059
4/28/2023 14:31:07.710,-0.09,-0.809,-0.055
4/28/2023 14:31:07.720,-0.129,-0.926,-0.031
4/28/2023 14:31:07.730,-0.227,-1.063,-0.027
4/28/2023 14:31:07.740,-0.367,-1.207,-0.035
4/28/2023 14:31:07.750,-0.496,-1.316,0.004
4/28/2023 14:31:07.760,-0.563,-1.383,0.105
4/28/2023 14:31:07.770,-0.496,-1.41,0.23
4/28/2023 14:31:07.780,-0.414,-1.418,0.219
4/28/2023 14:31:07.790,-0.375,-1.434,0.012
4/28/2023 14:31:07.800,-0.383,-1.586,-0.152
4/28/2023 14:31:07.810,-0.402,-1.777,-0.281
4/28/2023 14:31:07.820,-0.453,-1.863,-0.449
4/28/2023 14:31:07.830,-0.508,-1.77,-0.629
4/28/2023 14:31:07.840,-0.566,-1.656,-0.66
4/28/2023 14:31:07.850,-0.594,-1.555,-0.586
4/28/2023 14:31:07.860,-0.629,-1.367,-0.508
4/28/2023 14:31:07.870,-0.664,-1.172,-0.418
4/28/2023 14:31:07.880,-0.621,-1.004,-0.297
4/28/2023 14:31:07.890,-0.492,-0.863,-0.207
4/28/2023 14:31:07.900,-0.383,-0.816,-0.258
4/28/2023 14:31:07.910,-0.309,-0.836,-0.441
4/28/2023 14:31:07.920,-0.258,-0.902,-0.613
4/28/2023 14:31:07.930,-0.223,-1.004,-0.699
4/28/2023 14:31:07.940,-0.195,-1.078,-0.672
4/28/2023 14:31:07.950,-0.203,-1.07,-0.574
4/28/2023 14:31:07.960,-0.227,-0.961,-0.453
4/28/2023 14:31:07.970,-0.246,-0.816,-0.352
4/28/2023 14:31:07.980,-0.281,-0.711,-0.262
4/28/2023 14:31:07.990,-0.313,-0.641,-0.168
4/28/2023 14:31:08.000,-0.355,-0.602,-0.082
4/28/2023 14:31:08.010,-0.375,-0.578,-0.012
4/28/2023 14:31:08.020,-0.402,-0.551,0.012
4/28/2023 14:31:08.030,-0.41,-0.523,0.004
4/28/2023 14:31:08.040,-0.398,-0.477,-0.016
4/28/2023 14:31:08.050,-0.367,-0.441,-0.063
4/28/2023 14:31:08.060,-0.352,-0.422,-0.121
4/28/2023 14:31:08.070,-0.352,-0.43,-0.176
4/28/2023 14:31:08.080,-0.305,-0.492,-0.215
4/28/2023 14:31:08.090,-0.184,-0.586,-0.215
4/28/2023 14:31:08.100,-0.066,-0.668,-0.199
4/28/2023 14:31:08.110,0.016,-0.73,-0.199
4/28/2023 14:31:08.120,0.066,-0.785,-0.203
4/28/2023 14:31:08.130,0.113,-0.828,-0.188
4/28/2023 14:31:08.140,0.176,-0.863,-0.168
4/28/2023 14:31:08.150,0.191,-0.859,-0.16
4/28/2023 14:31:08.160,0.141,-0.84,-0.195
4/28/2023 14:31:08.170,0.07,-0.805,-0.215
4/28/2023 14:31:08.180,0.02,-0.781,-0.199
4/28/2023 14:31:08.190,-0.027,-0.777,-0.176
4/28/2023 14:31:08.200,-0.105,-0.824,-0.145
4/28/2023 14:31:08.210,-0.191,-0.918,-0.133
4/28/2023 14:31:08.220,-0.27,-1.023,-0.148
4/28/2023 14:31:08.230,-0.336,-1.117,-0.152
4/28/2023 14:31:08.240,-0.371,-1.203,-0.145
4/28/2023 14:31:08.250,-0.336,-1.23,-0.152
4/28/2023 14:31:08.260,-0.215,-1.23,-0.199
4/28/2023 14:31:08.270,-0.008,-1.223,-0.25
4/28/2023 14:31:08.280,0.203,-1.273,-0.246
4/28/2023 14:31:08.290,0.328,-1.375,-0.203
4/28/2023 14:31:08.300,0.258,-1.457,-0.223
4/28/2023 14:31:08.310,0.016,-1.496,-0.418
4/28/2023 14:31:08.320,-0.328,-1.617,-0.539
4/28/2023 14:31:08.330,-0.637,-1.777,-0.539
4/28/2023 14:31:08.340,-0.738,-1.738,-0.617
4/28/2023 14:31:08.350,-0.648,-1.59,-0.664
4/28/2023 14:31:08.360,-0.574,-1.504,-0.645
4/28/2023 14:31:08.370,-0.547,-1.449,-0.625
4/28/2023 14:31:08.380,-0.527,-1.293,-0.52
4/28/2023 14:31:08.390,-0.547,-1.016,-0.34
4/28/2023 14:31:08.400,-0.574,-0.695,-0.223
4/28/2023 14:31:08.410,-0.582,-0.582,-0.207
4/28/2023 14:31:08.420,-0.555,-0.805,-0.199
4/28/2023 14:31:08.430,-0.539,-1.07,-0.254
4/28/2023 14:31:08.440,-0.559,-1.199,-0.313
4/28/2023 14:31:08.450,-0.551,-1.23,-0.309
4/28/2023 14:31:08.460,-0.5,-1.242,-0.309
4/28/2023 14:31:08.470,-0.422,-1.262,-0.309
4/28/2023 14:31:08.480,-0.348,-1.289,-0.313
4/28/2023 14:31:08.490,-0.285,-1.281,-0.332
4/28/2023 14:31:08.500,-0.246,-1.188,-0.344
4/28/2023 14:31:08.510,-0.184,-1.016,-0.32
4/28/2023 14:31:08.520,-0.117,-0.852,-0.254
4/28/2023 14:31:08.530,-0.063,-0.711,-0.176
4/28/2023 14:31:08.540,-0.035,-0.582,-0.113
4/28/2023 14:31:08.550,-0.035,-0.492,-0.063
4/28/2023 14:31:08.560,-0.027,-0.434,-0.023
4/28/2023 14:31:08.570,-0.023,-0.395,-0.016
4/28/2023 14:31:08.580,-0.047,-0.391,0.008
4/28/2023 14:31:08.590,-0.094,-0.398,0.023
4/28/2023 14:31:08.600,-0.152,-0.395,0.016
4/28/2023 14:31:08.610,-0.191,-0.402,0.012
4/28/2023 14:31:08.620,-0.215,-0.457,0.016
4/28/2023 14:31:08.630,-0.207,-0.52,-0.004
4/28/2023 14:31:08.640,-0.191,-0.613,-0.023
4/28/2023 14:31:08.650,-0.203,-0.719,-0.027
4/28/2023 14:31:08.660,-0.234,-0.793,-0.035
4/28/2023 14:31:08.670,-0.238,-0.844,-0.039
4/28/2023 14:31:08.680,-0.238,-0.895,-0.035
4/28/2023 14:31:08.690,-0.242,-0.914,-0.07
4/28/2023 14:31:08.700,-0.238,-0.922,-0.113
4/28/2023 14:31:08.710,-0.188,-0.934,-0.105
4/28/2023 14:31:08.720,-0.125,-0.941,-0.086
4/28/2023 14:31:08.730,-0.086,-0.965,-0.074
4/28/2023 14:31:08.740,-0.125,-1.023,-0.082
4/28/2023 14:31:08.750,-0.207,-1.098,-0.086
4/28/2023 14:31:08.760,-0.293,-1.184,-0.074
4/28/2023 14:31:08.770,-0.344,-1.305,-0.031
4/28/2023 14:31:08.780,-0.324,-1.434,0
4/28/2023 14:31:08.790,-0.301,-1.48,-0.078
4/28/2023 14:31:08.800,-0.324,-1.465,-0.281
4/28/2023 14:31:08.810,-0.434,-1.582,-0.434
4/28/2023 14:31:08.820,-0.551,-1.715,-0.539
4/28/2023 14:31:08.830,-0.613,-1.816,-0.59
4/28/2023 14:31:08.840,-0.602,-1.73,-0.656
4/28/2023 14:31:08.850,-0.578,-1.566,-0.664
4/28/2023 14:31:08.860,-0.566,-1.469,-0.602
4/28/2023 14:31:08.870,-0.586,-1.324,-0.543
4/28/2023 14:31:08.880,-0.613,-1.105,-0.5
4/28/2023 14:31:08.890,-0.555,-0.891,-0.355
4/28/2023 14:31:08.900,-0.426,-0.684,-0.191
4/28/2023 14:31:08.910,-0.332,-0.539,-0.137
4/28/2023 14:31:08.920,-0.281,-0.531,-0.207
4/28/2023 14:31:08.930,-0.211,-0.656,-0.332
4/28/2023 14:31:08.940,-0.164,-0.848,-0.461
4/28/2023 14:31:08.950,-0.164,-1.012,-0.57
4/28/2023 14:31:08.960,-0.195,-1.094,-0.598
4/28/2023 14:31:08.970,-0.254,-1.086,-0.57
4/28/2023 14:31:08.980,-0.301,-0.988,-0.512
4/28/2023 14:31:08.990,-0.34,-0.871,-0.438
4/28/2023 14:31:09.000,-0.402,-0.789,-0.359
4/28/2023 14:31:09.010,-0.434,-0.738,-0.273
4/28/2023 14:31:09.020,-0.461,-0.703,-0.188
4/28/2023 14:31:09.030,-0.457,-0.641,-0.125
4/28/2023 14:31:09.040,-0.449,-0.59,-0.082
4/28/2023 14:31:09.050,-0.418,-0.543,-0.07
4/28/2023 14:31:09.060,-0.371,-0.516,-0.078
4/28/2023 14:31:09.070,-0.328,-0.496,-0.109
4/28/2023 14:31:09.080,-0.297,-0.504,-0.172
4/28/2023 14:31:09.090,-0.25,-0.535,-0.199
4/28/2023 14:31:09.100,-0.207,-0.578,-0.223
4/28/2023 14:31:09.110,-0.152,-0.633,-0.246
4/28/2023 14:31:09.120,-0.066,-0.68,-0.23
4/28/2023 14:31:09.130,0.016,-0.711,-0.215
4/28/2023 14:31:09.140,0.055,-0.723,-0.215
4/28/2023 14:31:09.150,0.066,-0.723,-0.219
4/28/2023 14:31:09.160,0.059,-0.711,-0.219
4/28/2023 14:31:09.170,0.023,-0.695,-0.234
4/28/2023 14:31:09.180,-0.023,-0.676,-0.242
4/28/2023 14:31:09.190,-0.078,-0.688,-0.246
4/28/2023 14:31:09.200,-0.121,-0.746,-0.238
4/28/2023 14:31:09.210,-0.16,-0.863,-0.223
4/28/2023 14:31:09.220,-0.207,-0.992,-0.223
4/28/2023 14:31:09.230,-0.262,-1.098,-0.25
4/28/2023 14:31:09.240,-0.309,-1.168,-0.266
4/28/2023 14:31:09.250,-0.313,-1.223,-0.246
4/28/2023 14:31:09.260,-0.234,-1.234,-0.234
4/28/2023 14:31:09.270,-0.113,-1.223,-0.234
4/28/2023 14:31:09.280,0.059,-1.215,-0.258
4/28/2023 14:31:09.290,0.234,-1.23,-0.281
4/28/2023 14:31:09.300,0.375,-1.293,-0.305
4/28/2023 14:31:09.310,0.41,-1.379,-0.324
4/28/2023 14:31:09.320,0.25,-1.426,-0.273
4/28/2023 14:31:09.330,-0.047,-1.41,-0.281
4/28/2023 14:31:09.340,-0.371,-1.43,-0.375
4/28/2023 14:31:09.350,-0.629,-1.508,-0.508
4/28/2023 14:31:09.360,-0.73,-1.609,-0.605
4/28/2023 14:31:09.370,-0.688,-1.625,-0.715
4/28/2023 14:31:09.380,-0.613,-1.516,-0.813
4/28/2023 14:31:09.390,-0.578,-1.305,-0.754
4/28/2023 14:31:09.400,-0.605,-1.008,-0.559
4/28/2023 14:31:09.410,-0.59,-0.668,-0.363
4/28/2023 14:31:09.420,-0.512,-0.445,-0.199
4/28/2023 14:31:09.430,-0.43,-0.504,-0.051
4/28/2023 14:31:09.440,-0.477,-0.77,-0.047
4/28/2023 14:31:09.450,-0.578,-1.008,-0.188
4/28/2023 14:31:09.460,-0.59,-1.207,-0.297
4/28/2023 14:31:09.470,-0.523,-1.395,-0.328
4/28/2023 14:31:09.480,-0.473,-1.504,-0.363
4/28/2023 14:31:09.490,-0.449,-1.52,-0.402
4/28/2023 14:31:09.500,-0.398,-1.457,-0.418
4/28/2023 14:31:09.510,-0.25,-1.348,-0.395
4/28/2023 14:31:09.520,-0.082,-1.203,-0.324
4/28/2023 14:31:09.530,0.047,-1.023,-0.254
4/28/2023 14:31:09.540,0.102,-0.848,-0.191
4/28/2023 14:31:09.550,0.109,-0.703,-0.156
4/28/2023 14:31:09.560,0.117,-0.574,-0.125
4/28/2023 14:31:09.570,0.129,-0.48,-0.086
4/28/2023 14:31:09.580,0.125,-0.426,-0.043
4/28/2023 14:31:09.590,0.086,-0.41,-0.027
4/28/2023 14:31:09.600,0.008,-0.441,-0.012
4/28/2023 14:31:09.610,-0.063,-0.492,0
4/28/2023 14:31:09.620,-0.137,-0.531,-0.012
4/28/2023 14:31:09.630,-0.195,-0.563,-0.02
4/28/2023 14:31:09.640,-0.246,-0.605,-0.02
4/28/2023 14:31:09.650,-0.277,-0.648,-0.027
4/28/2023 14:31:09.660,-0.297,-0.691,-0.016
4/28/2023 14:31:09.670,-0.32,-0.723,0
4/28/2023 14:31:09.680,-0.324,-0.746,-0.004
4/28/2023 14:31:09.690,-0.305,-0.762,0.012
4/28/2023 14:31:09.700,-0.25,-0.773,0.008
4/28/2023 14:31:09.710,-0.211,-0.773,-0.039
4/28/2023 14:31:09.720,-0.172,-0.781,-0.078
4/28/2023 14:31:09.730,-0.117,-0.797,-0.113
4/28/2023 14:31:09.740,-0.094,-0.852,-0.133
4/28/2023 14:31:09.750,-0.148,-0.949,-0.148
4/28/2023 14:31:09.760,-0.254,-1.066,-0.18
4/28/2023 14:31:09.770,-0.344,-1.203,-0.164
4/28/2023 14:31:09.780,-0.363,-1.352,-0.055
4/28/2023 14:31:09.790,-0.309,-1.457,0.086
4/28/2023 14:31:09.800,-0.195,-1.516,0.168
4/28/2023 14:31:09.810,-0.105,-1.527,0.039
4/28/2023 14:31:09.820,-0.129,-1.582,-0.188
4/28/2023 14:31:09.830,-0.293,-1.723,-0.348
4/28/2023 14:31:09.840,-0.492,-1.809,-0.492
4/28/2023 14:31:09.850,-0.621,-1.75,-0.559
4/28/2023 14:31:09.860,-0.664,-1.457,-0.633
4/28/2023 14:31:09.870,-0.707,-1.285,-0.555
4/28/2023 14:31:09.880,-0.727,-1.168,-0.445
4/28/2023 14:31:09.890,-0.727,-1.027,-0.359
4/28/2023 14:31:09.900,-0.656,-0.883,-0.277
4/28/2023 14:31:09.910,-0.551,-0.809,-0.277
4/28/2023 14:31:09.920,-0.496,-0.852,-0.391
4/28/2023 14:31:09.930,-0.438,-0.98,-0.52
4/28/2023 14:31:09.940,-0.328,-1.121,-0.586
4/28/2023 14:31:09.950,-0.258,-1.191,-0.598
4/28/2023 14:31:09.960,-0.258,-1.176,-0.559
4/28/2023 14:31:09.970,-0.262,-1.082,-0.477
4/28/2023 14:31:09.980,-0.258,-0.934,-0.359
4/28/2023 14:31:09.990,-0.305,-0.809,-0.258
4/28/2023 14:31:10.000,-0.383,-0.719,-0.184
4/28/2023 14:31:10.010,-0.414,-0.66,-0.133
4/28/2023 14:31:10.020,-0.449,-0.625,-0.113
4/28/2023 14:31:10.030,-0.484,-0.609,-0.125
4/28/2023 14:31:10.040,-0.504,-0.602,-0.148
4/28/2023 14:31:10.050,-0.492,-0.586,-0.172
4/28/2023 14:31:10.060,-0.473,-0.535,-0.188
4/28/2023 14:31:10.070,-0.434,-0.469,-0.199
4/28/2023 14:31:10.080,-0.367,-0.43,-0.203
4/28/2023 14:31:10.090,-0.289,-0.441,-0.223
4/28/2023 14:31:10.100,-0.195,-0.496,-0.238
4/28/2023 14:31:10.110,-0.102,-0.574,-0.25
4/28/2023 14:31:10.120,-0.043,-0.645,-0.242
4/28/2023 14:31:10.130,-0.008,-0.691,-0.242
4/28/2023 14:31:10.140,0.016,-0.719,-0.23
4/28/2023 14:31:10.150,0.039,-0.727,-0.215
4/28/2023 14:31:10.160,0.039,-0.719,-0.211
4/28/2023 14:31:10.170,0.043,-0.703,-0.191
4/28/2023 14:31:10.180,0.039,-0.699,-0.164
4/28/2023 14:31:10.190,0.02,-0.723,-0.137
4/28/2023 14:31:10.200,-0.023,-0.777,-0.133
4/28/2023 14:31:10.210,-0.082,-0.879,-0.152
4/28/2023 14:31:10.220,-0.133,-0.988,-0.203
4/28/2023 14:31:10.230,-0.164,-1.098,-0.23
4/28/2023 14:31:10.240,-0.148,-1.207,-0.234
4/28/2023 14:31:10.250,-0.117,-1.297,-0.23
4/28/2023 14:31:10.260,-0.059,-1.34,-0.25
4/28/2023 14:31:10.270,0.051,-1.332,-0.254
4/28/2023 14:31:10.280,0.199,-1.305,-0.234
4/28/2023 14:31:10.290,0.348,-1.289,-0.207
4/28/2023 14:31:10.300,0.391,-1.305,-0.16
4/28/2023 14:31:10.310,0.219,-1.324,-0.098
4/28/2023 14:31:10.320,-0.055,-1.328,-0.211
4/28/2023 14:31:10.330,-0.355,-1.379,-0.395
4/28/2023 14:31:10.340,-0.59,-1.484,-0.527
4/28/2023 14:31:10.350,-0.684,-1.566,-0.75
4/28/2023 14:31:10.360,-0.594,-1.609,-0.859
4/28/2023 14:31:10.370,-0.48,-1.621,-0.836
4/28/2023 14:31:10.380,-0.48,-1.492,-0.68
4/28/2023 14:31:10.390,-0.57,-1.195,-0.488
4/28/2023 14:31:10.400,-0.641,-0.762,-0.328
4/28/2023 14:31:10.410,-0.645,-0.441,-0.199
4/28/2023 14:31:10.420,-0.617,-0.559,-0.07
4/28/2023 14:31:10.430,-0.59,-0.902,-0.082
4/28/2023 14:31:10.440,-0.586,-1.184,-0.262
4/28/2023 14:31:10.450,-0.551,-1.395,-0.387
4/28/2023 14:31:10.460,-0.492,-1.559,-0.398
4/28/2023 14:31:10.470,-0.449,-1.609,-0.391
4/28/2023 14:31:10.480,-0.41,-1.551,-0.363
4/28/2023 14:31:10.490,-0.313,-1.445,-0.324
4/28/2023 14:31:10.500,-0.195,-1.332,-0.301
4/28/2023 14:31:10.510,-0.066,-1.203,-0.293
4/28/2023 14:31:10.520,0.031,-1.039,-0.277
4/28/2023 14:31:10.530,0.07,-0.863,-0.234
4/28/2023 14:31:10.540,0.094,-0.715,-0.164
4/28/2023 14:31:10.550,0.113,-0.57,-0.117
4/28/2023 14:31:10.560,0.129,-0.453,-0.086
4/28/2023 14:31:10.570,0.129,-0.375,-0.047
4/28/2023 14:31:10.580,0.086,-0.34,-0.023
4/28/2023 14:31:10.590,0.02,-0.355,-0.02
4/28/2023 14:31:10.600,-0.07,-0.406,-0.027
4/28/2023 14:31:10.610,-0.141,-0.445,-0.043
4/28/2023 14:31:10.620,-0.207,-0.484,-0.051
4/28/2023 14:31:10.630,-0.254,-0.527,-0.059
4/28/2023 14:31:10.640,-0.297,-0.594,-0.059
4/28/2023 14:31:10.650,-0.328,-0.645,-0.07
4/28/2023 14:31:10.660,-0.367,-0.711,-0.078
4/28/2023 14:31:10.670,-0.375,-0.766,-0.063
4/28/2023 14:31:10.680,-0.371,-0.824,-0.027
4/28/2023 14:31:10.690,-0.359,-0.848,0.012
4/28/2023 14:31:10.700,-0.352,-0.82,0.008
4/28/2023 14:31:10.710,-0.336,-0.785,-0.027
4/28/2023 14:31:10.720,-0.273,-0.793,-0.043
4/28/2023 14:31:10.730,-0.211,-0.855,-0.047
4/28/2023 14:31:10.740,-0.199,-0.945,-0.082
4/28/2023 14:31:10.750,-0.258,-1.07,-0.113
4/28/2023 14:31:10.760,-0.359,-1.176,-0.117
4/28/2023 14:31:10.770,-0.445,-1.273,-0.105
4/28/2023 14:31:10.780,-0.453,-1.395,-0.039
4/28/2023 14:31:10.790,-0.395,-1.469,0.016
4/28/2023 14:31:10.800,-0.328,-1.5,-0.031
4/28/2023 14:31:10.810,-0.285,-1.563,-0.145
4/28/2023 14:31:10.820,-0.316,-1.711,-0.258
4/28/2023 14:31:10.830,-0.398,-1.801,-0.371
4/28/2023 14:31:10.840,-0.469,-1.828,-0.469
4/28/2023 14:31:10.850,-0.473,-1.691,-0.527
4/28/2023 14:31:10.860,-0.48,-1.492,-0.504
4/28/2023 14:31:10.870,-0.547,-1.344,-0.48
4/28/2023 14:31:10.880,-0.586,-1.164,-0.418
4/28/2023 14:31:10.890,-0.57,-0.996,-0.266
4/28/2023 14:31:10.900,-0.496,-0.793,-0.113
4/28/2023 14:31:10.910,-0.441,-0.629,-0.082
4/28/2023 14:31:10.920,-0.402,-0.617,-0.172
4/28/2023 14:31:10.930,-0.32,-0.762,-0.293
4/28/2023 14:31:10.940,-0.238,-0.977,-0.418
4/28/2023 14:31:10.950,-0.215,-1.141,-0.539
4/28/2023 14:31:10.960,-0.234,-1.195,-0.586
4/28/2023 14:31:10.970,-0.266,-1.145,-0.543
4/28/2023 14:31:10.980,-0.285,-1.031,-0.449
4/28/2023 14:31:10.990,-0.309,-0.898,-0.344
4/28/2023 14:31:11.000,-0.352,-0.793,-0.238
4/28/2023 14:31:11.010,-0.367,-0.734,-0.133
4/28/2023 14:31:11.020,-0.383,-0.688,-0.047
4/28/2023 14:31:11.030,-0.406,-0.645,0.004
4/28/2023 14:31:11.040,-0.387,-0.598,0.035
4/28/2023 14:31:11.050,-0.355,-0.531,0.047
4/28/2023 14:31:11.060,-0.352,-0.461,0
4/28/2023 14:31:11.070,-0.34,-0.395,-0.063
4/28/2023 14:31:11.080,-0.289,-0.359,-0.113
4/28/2023 14:31:11.090,-0.246,-0.391,-0.141
4/28/2023 14:31:11.100,-0.168,-0.453,-0.16
4/28/2023 14:31:11.110,-0.063,-0.523,-0.168
4/28/2023 14:31:11.120,-0.012,-0.59,-0.168
4/28/2023 14:31:11.130,-0.008,-0.652,-0.199
4/28/2023 14:31:11.140,-0.027,-0.707,-0.219
4/28/2023 14:31:11.150,-0.023,-0.738,-0.234
4/28/2023 14:31:11.160,-0.027,-0.766,-0.238
4/28/2023 14:31:11.170,-0.059,-0.766,-0.242
4/28/2023 14:31:11.180,-0.102,-0.777,-0.238
4/28/2023 14:31:11.190,-0.145,-0.813,-0.215
4/28/2023 14:31:11.200,-0.199,-0.887,-0.191
4/28/2023 14:31:11.210,-0.238,-1.004,-0.18
4/28/2023 14:31:11.220,-0.238,-1.129,-0.176
4/28/2023 14:31:11.230,-0.211,-1.242,-0.195
4/28/2023 14:31:11.240,-0.18,-1.32,-0.242
4/28/2023 14:31:11.250,-0.109,-1.328,-0.297
4/28/2023 14:31:11.260,0.043,-1.266,-0.316
4/28/2023 14:31:11.270,0.246,-1.184,-0.277
4/28/2023 14:31:11.280,0.41,-1.156,-0.23
4/28/2023 14:31:11.290,0.434,-1.234,-0.273
4/28/2023 14:31:11.300,0.254,-1.406,-0.445
4/28/2023 14:31:11.310,-0.098,-1.633,-0.617
4/28/2023 14:31:11.320,-0.508,-1.836,-0.715
4/28/2023 14:31:11.330,-0.684,-1.801,-0.742
4/28/2023 14:31:11.340,-0.645,-1.617,-0.676
4/28/2023 14:31:11.350,-0.617,-1.438,-0.602
4/28/2023 14:31:11.360,-0.668,-1.285,-0.508
4/28/2023 14:31:11.370,-0.766,-1.086,-0.398
4/28/2023 14:31:11.380,-0.82,-0.84,-0.313
4/28/2023 14:31:11.390,-0.75,-0.73,-0.238
4/28/2023 14:31:11.400,-0.676,-0.859,-0.203
4/28/2023 14:31:11.410,-0.668,-1.043,-0.273
4/28/2023 14:31:11.420,-0.668,-1.164,-0.355
4/28/2023 14:31:11.430,-0.621,-1.258,-0.32
4/28/2023 14:31:11.440,-0.563,-1.324,-0.297
4/28/2023 14:31:11.450,-0.512,-1.367,-0.316
4/28/2023 14:31:11.460,-0.426,-1.406,-0.332
4/28/2023 14:31:11.470,-0.324,-1.395,-0.34
4/28/2023 14:31:11.480,-0.227,-1.328,-0.332
4/28/2023 14:31:11.490,-0.145,-1.195,-0.305
4/28/2023 14:31:11.500,-0.098,-1.008,-0.27
4/28/2023 14:31:11.510,-0.066,-0.789,-0.227
4/28/2023 14:31:11.520,-0.043,-0.625,-0.172
4/28/2023 14:31:11.530,-0.004,-0.531,-0.109
4/28/2023 14:31:11.540,0.047,-0.469,-0.074
4/28/2023 14:31:11.550,0.082,-0.406,-0.059
4/28/2023 14:31:11.560,0.074,-0.367,-0.043
4/28/2023 14:31:11.570,0.027,-0.336,-0.035
4/28/2023 14:31:11.580,-0.031,-0.324,-0.027
4/28/2023 14:31:11.590,-0.09,-0.355,-0.008
4/28/2023 14:31:11.600,-0.141,-0.395,0.004
4/28/2023 14:31:11.610,-0.176,-0.449,0
4/28/2023 14:31:11.620,-0.188,-0.523,0.004
4/28/2023 14:31:11.630,-0.195,-0.602,-0.008
4/28/2023 14:31:11.640,-0.203,-0.691,-0.023
4/28/2023 14:31:11.650,-0.219,-0.785,-0.02
4/28/2023 14:31:11.660,-0.238,-0.867,-0.008
4/28/2023 14:31:11.670,-0.254,-0.93,0.012
4/28/2023 14:31:11.680,-0.258,-0.922,-0.035
4/28/2023 14:31:11.690,-0.246,-0.891,-0.074
4/28/2023 14:31:11.700,-0.203,-0.875,-0.09
4/28/2023 14:31:11.710,-0.16,-0.93,-0.07
4/28/2023 14:31:11.720,-0.184,-1.047,-0.066
4/28/2023 14:31:11.730,-0.262,-1.145,-0.09
4/28/2023 14:31:11.740,-0.32,-1.207,-0.078
4/28/2023 14:31:11.750,-0.344,-1.234,-0.004
4/28/2023 14:31:11.760,-0.328,-1.277,0.09
4/28/2023 14:31:11.770,-0.281,-1.355,0.164
4/28/2023 14:31:11.780,-0.238,-1.422,0.117
4/28/2023 14:31:11.790,-0.266,-1.539,-0.027
4/28/2023 14:31:11.800,-0.316,-1.75,-0.121
4/28/2023 14:31:11.810,-0.348,-1.887,-0.184
4/28/2023 14:31:11.820,-0.43,-1.848,-0.305
4/28/2023 14:31:11.830,-0.539,-1.621,-0.445
4/28/2023 14:31:11.840,-0.574,-1.438,-0.438
4/28/2023 14:31:11.850,-0.594,-1.375,-0.363
4/28/2023 14:31:11.860,-0.648,-1.297,-0.355
4/28/2023 14:31:11.870,-0.672,-1.148,-0.309
4/28/2023 14:31:11.880,-0.613,-0.941,-0.242
4/28/2023 14:31:11.890,-0.559,-0.824,-0.23
4/28/2023 14:31:11.900,-0.547,-0.836,-0.305
4/28/2023 14:31:11.910,-0.5,-0.922,-0.418
4/28/2023 14:31:11.920,-0.426,-1.016,-0.484
4/28/2023 14:31:11.930,-0.383,-1.055,-0.492
4/28/2023 14:31:11.940,-0.379,-1.016,-0.438
4/28/2023 14:31:11.950,-0.363,-0.914,-0.316
4/28/2023 14:31:11.960,-0.359,-0.777,-0.188
4/28/2023 14:31:11.970,-0.371,-0.66,-0.121
4/28/2023 14:31:11.980,-0.383,-0.59,-0.094
4/28/2023 14:31:11.990,-0.395,-0.578,-0.09
4/28/2023 14:31:12.000,-0.422,-0.578,-0.109
4/28/2023 14:31:12.010,-0.441,-0.586,-0.133
4/28/2023 14:31:12.020,-0.438,-0.594,-0.156
4/28/2023 14:31:12.030,-0.418,-0.582,-0.168
4/28/2023 14:31:12.040,-0.387,-0.535,-0.188
4/28/2023 14:31:12.050,-0.324,-0.465,-0.191
4/28/2023 14:31:12.060,-0.289,-0.422,-0.188
4/28/2023 14:31:12.070,-0.27,-0.418,-0.199
4/28/2023 14:31:12.080,-0.207,-0.465,-0.215
4/28/2023 14:31:12.090,-0.117,-0.52,-0.191
4/28/2023 14:31:12.100,-0.055,-0.59,-0.184
4/28/2023 14:31:12.110,-0.035,-0.676,-0.195
4/28/2023 14:31:12.120,-0.02,-0.781,-0.215
4/28/2023 14:31:12.130,0.016,-0.871,-0.246
4/28/2023 14:31:12.140,0.039,-0.926,-0.266
4/28/2023 14:31:12.150,0.047,-0.945,-0.258
4/28/2023 14:31:12.160,0.035,-0.953,-0.23
4/28/2023 14:31:12.170,0.012,-0.98,-0.195
4/28/2023 14:31:12.180,-0.012,-1.043,-0.172
4/28/2023 14:31:12.190,-0.047,-1.125,-0.184
4/28/2023 14:31:12.200,-0.066,-1.191,-0.215
4/28/2023 14:31:12.210,-0.063,-1.25,-0.219
4/28/2023 14:31:12.220,-0.051,-1.293,-0.219
4/28/2023 14:31:12.230,-0.012,-1.313,-0.215
4/28/2023 14:31:12.240,0.098,-1.285,-0.219
4/28/2023 14:31:12.250,0.234,-1.258,-0.215
4/28/2023 14:31:12.260,0.32,-1.289,-0.227
4/28/2023 14:31:12.270,0.316,-1.371,-0.227
4/28/2023 14:31:12.280,0.117,-1.422,-0.203
4/28/2023 14:31:12.290,-0.191,-1.402,-0.313
4/28/2023 14:31:12.300,-0.602,-1.441,-0.543
4/28/2023 14:31:12.310,-0.902,-1.523,-0.73
4/28/2023 14:31:12.320,-0.93,-1.621,-0.805
4/28/2023 14:31:12.330,-0.719,-1.574,-0.77
4/28/2023 14:31:12.340,-0.551,-1.352,-0.707
4/28/2023 14:31:12.350,-0.547,-1.012,-0.578
4/28/2023 14:31:12.360,-0.551,-0.684,-0.426
4/28/2023 14:31:12.370,-0.5,-0.492,-0.266
4/28/2023 14:31:12.380,-0.438,-0.566,-0.113
4/28/2023 14:31:12.390,-0.453,-0.832,-0.063
4/28/2023 14:31:12.400,-0.531,-1.059,-0.215
4/28/2023 14:31:12.410,-0.547,-1.223,-0.41
4/28/2023 14:31:12.420,-0.461,-1.422,-0.488
4/28/2023 14:31:12.430,-0.352,-1.602,-0.508
4/28/2023 14:31:12.440,-0.305,-1.656,-0.5
4/28/2023 14:31:12.450,-0.281,-1.582,-0.469
4/28/2023 14:31:12.460,-0.223,-1.41,-0.395
4/28/2023 14:31:12.470,-0.121,-1.168,-0.316
4/28/2023 14:31:12.480,-0.043,-0.922,-0.281
4/28/2023 14:31:12.490,0.008,-0.766,-0.23
4/28/2023 14:31:12.500,0.047,-0.656,-0.203
4/28/2023 14:31:12.510,0.098,-0.555,-0.18
4/28/2023 14:31:12.520,0.137,-0.469,-0.164
4/28/2023 14:31:12.530,0.137,-0.434,-0.137
4/28/2023 14:31:12.540,0.094,-0.426,-0.117
4/28/2023 14:31:12.550,0.023,-0.434,-0.105
4/28/2023 14:31:12.560,-0.059,-0.465,-0.086
4/28/2023 14:31:12.570,-0.145,-0.496,-0.082
4/28/2023 14:31:12.580,-0.246,-0.527,-0.078
4/28/2023 14:31:12.590,-0.313,-0.555,-0.098
4/28/2023 14:31:12.600,-0.363,-0.598,-0.078
4/28/2023 14:31:12.610,-0.414,-0.637,-0.051
4/28/2023 14:31:12.620,-0.445,-0.691,-0.027
4/28/2023 14:31:12.630,-0.438,-0.723,-0.012
4/28/2023 14:31:12.640,-0.371,-0.762,-0.004
4/28/2023 14:31:12.650,-0.262,-0.773,-0.027
4/28/2023 14:31:12.660,-0.168,-0.746,-0.105
4/28/2023 14:31:12.670,-0.086,-0.746,-0.188
4/28/2023 14:31:12.680,-0.051,-0.84,-0.215
4/28/2023 14:31:12.690,-0.113,-1,-0.227
4/28/2023 14:31:12.700,-0.25,-1.141,-0.227
4/28/2023 14:31:12.710,-0.391,-1.23,-0.195
4/28/2023 14:31:12.720,-0.465,-1.305,-0.074
4/28/2023 14:31:12.730,-0.465,-1.355,0.074
4/28/2023 14:31:12.740,-0.41,-1.371,0.195
4/28/2023 14:31:12.750,-0.293,-1.383,0.262
4/28/2023 14:31:12.760,-0.129,-1.441,0.207
4/28/2023 14:31:12.770,-0.051,-1.449,-0.012
4/28/2023 14:31:12.780,-0.129,-1.496,-0.254
4/28/2023 14:31:12.790,-0.27,-1.602,-0.391
4/28/2023 14:31:12.800,-0.426,-1.578,-0.477
4/28/2023 14:31:12.810,-0.625,-1.391,-0.559
4/28/2023 14:31:12.820,-0.719,-1.121,-0.555
4/28/2023 14:31:12.830,-0.723,-0.988,-0.441
4/28/2023 14:31:12.840,-0.73,-0.98,-0.344
4/28/2023 14:31:12.850,-0.734,-0.961,-0.281
4/28/2023 14:31:12.860,-0.688,-0.879,-0.285
4/28/2023 14:31:12.870,-0.617,-0.805,-0.395
4/28/2023 14:31:12.880,-0.551,-0.855,-0.539
4/28/2023 14:31:12.890,-0.426,-1.023,-0.617
4/28/2023 14:31:12.900,-0.281,-1.18,-0.613
4/28/2023 14:31:12.910,-0.172,-1.262,-0.586
4/28/2023 14:31:12.920,-0.109,-1.23,-0.547
4/28/2023 14:31:12.930,-0.074,-1.102,-0.477
4/28/2023 14:31:12.940,-0.082,-0.934,-0.355
4/28/2023 14:31:12.950,-0.156,-0.785,-0.238
4/28/2023 14:31:12.960,-0.277,-0.688,-0.137
4/28/2023 14:31:12.970,-0.387,-0.629,-0.059
4/28/2023 14:31:12.980,-0.461,-0.582,-0.023
4/28/2023 14:31:12.990,-0.504,-0.563,-0.031
4/28/2023 14:31:13.000,-0.535,-0.555,-0.07
4/28/2023 14:31:13.010,-0.523,-0.559,-0.113
4/28/2023 14:31:13.020,-0.512,-0.547,-0.176
4/28/2023 14:31:13.030,-0.477,-0.516,-0.223
4/28/2023 14:31:13.040,-0.426,-0.504,-0.266
4/28/2023 14:31:13.050,-0.348,-0.523,-0.293
4/28/2023 14:31:13.060,-0.246,-0.563,-0.309
4/28/2023 14:31:13.070,-0.129,-0.594,-0.301
4/28/2023 14:31:13.080,-0.031,-0.633,-0.289
4/28/2023 14:31:13.090,0.023,-0.664,-0.289
4/28/2023 14:31:13.100,0.059,-0.688,-0.27
4/28/2023 14:31:13.110,0.078,-0.695,-0.262
4/28/2023 14:31:13.120,0.074,-0.703,-0.258
4/28/2023 14:31:13.130,0.043,-0.727,-0.25
4/28/2023 14:31:13.140,0,-0.773,-0.234
4/28/2023 14:31:13.150,-0.055,-0.844,-0.215
4/28/2023 14:31:13.160,-0.121,-0.945,-0.199
4/28/2023 14:31:13.170,-0.188,-1.066,-0.207
4/28/2023 14:31:13.180,-0.223,-1.18,-0.234
4/28/2023 14:31:13.190,-0.207,-1.258,-0.266
4/28/2023 14:31:13.200,-0.156,-1.313,-0.27
4/28/2023 14:31:13.210,-0.086,-1.309,-0.266
4/28/2023 14:31:13.220,0.031,-1.242,-0.273
4/28/2023 14:31:13.230,0.207,-1.16,-0.273
4/28/2023 14:31:13.240,0.359,-1.129,-0.27
4/28/2023 14:31:13.250,0.422,-1.184,-0.266
4/28/2023 14:31:13.260,0.281,-1.258,-0.254
4/28/2023 14:31:13.270,-0.016,-1.297,-0.305
4/28/2023 14:31:13.280,-0.336,-1.328,-0.449
4/28/2023 14:31:13.290,-0.672,-1.461,-0.5
4/28/2023 14:31:13.300,-0.883,-1.504,-0.629
4/28/2023 14:31:13.310,-0.867,-1.453,-0.789
4/28/2023 14:31:13.320,-0.672,-1.398,-0.844
4/28/2023 14:31:13.330,-0.566,-1.313,-0.789
4/28/2023 14:31:13.340,-0.555,-1.113,-0.688
4/28/2023 14:31:13.350,-0.535,-0.816,-0.488
4/28/2023 14:31:13.360,-0.465,-0.563,-0.258
4/28/2023 14:31:13.370,-0.438,-0.582,-0.117
4/28/2023 14:31:13.380,-0.496,-0.844,-0.148
4/28/2023 14:31:13.390,-0.555,-1.133,-0.309
4/28/2023 14:31:13.400,-0.52,-1.355,-0.41
4/28/2023 14:31:13.410,-0.426,-1.508,-0.43
4/28/2023 14:31:13.420,-0.395,-1.59,-0.441
4/28/2023 14:31:13.430,-0.379,-1.582,-0.457
4/28/2023 14:31:13.440,-0.309,-1.52,-0.453
4/28/2023 14:31:13.450,-0.172,-1.434,-0.414
4/28/2023 14:31:13.460,-0.035,-1.309,-0.359
4/28/2023 14:31:13.470,0.051,-1.113,-0.305
4/28/2023 14:31:13.480,0.063,-0.887,-0.277
4/28/2023 14:31:13.490,0.051,-0.727,-0.234
4/28/2023 14:31:13.500,0.043,-0.617,-0.191
4/28/2023 14:31:13.510,0.086,-0.535,-0.16
4/28/2023 14:31:13.520,0.094,-0.48,-0.141
4/28/2023 14:31:13.530,0.051,-0.449,-0.121
4/28/2023 14:31:13.540,-0.02,-0.422,-0.109
4/28/2023 14:31:13.550,-0.102,-0.414,-0.086
4/28/2023 14:31:13.560,-0.191,-0.434,-0.066
4/28/2023 14:31:13.570,-0.277,-0.465,-0.066
4/28/2023 14:31:13.580,-0.332,-0.5,-0.059
4/28/2023 14:31:13.590,-0.355,-0.551,-0.055
4/28/2023 14:31:13.600,-0.359,-0.629,-0.051
4/28/2023 14:31:13.610,-0.363,-0.703,-0.039
4/28/2023 14:31:13.620,-0.367,-0.754,-0.035
4/28/2023 14:31:13.630,-0.367,-0.77,-0.023
4/28/2023 14:31:13.640,-0.324,-0.77,-0.02
4/28/2023 14:31:13.650,-0.258,-0.777,-0.008
4/28/2023 14:31:13.660,-0.215,-0.793,-0.031
4/28/2023 14:31:13.670,-0.176,-0.813,-0.086
4/28/2023 14:31:13.680,-0.125,-0.887,-0.098
4/28/2023 14:31:13.690,-0.09,-1.043,-0.066
4/28/2023 14:31:13.700,-0.184,-1.211,-0.078
4/28/2023 14:31:13.710,-0.34,-1.313,-0.109
4/28/2023 14:31:13.720,-0.449,-1.324,-0.063
4/28/2023 14:31:13.730,-0.52,-1.305,0.043
4/28/2023 14:31:13.740,-0.5,-1.25,0.156
4/28/2023 14:31:13.750,-0.387,-1.234,0.27
4/28/2023 14:31:13.760,-0.242,-1.285,0.297
4/28/2023 14:31:13.770,-0.086,-1.313,0.152
4/28/2023 14:31:13.780,-0.047,-1.355,-0.039
4/28/2023 14:31:13.790,-0.168,-1.543,-0.129
4/28/2023 14:31:13.800,-0.383,-1.633,-0.281
4/28/2023 14:31:13.810,-0.629,-1.543,-0.434
4/28/2023 14:31:13.820,-0.762,-1.355,-0.465
4/28/2023 14:31:13.830,-0.742,-1.223,-0.395
4/28/2023 14:31:13.840,-0.73,-1.188,-0.371
4/28/2023 14:31:13.850,-0.738,-1.117,-0.379
4/28/2023 14:31:13.860,-0.699,-0.988,-0.359
4/28/2023 14:31:13.870,-0.613,-0.875,-0.375
4/28/2023 14:31:13.880,-0.527,-0.855,-0.438
4/28/2023 14:31:13.890,-0.422,-0.957,-0.488
4/28/2023 14:31:13.900,-0.273,-1.059,-0.488
4/28/2023 14:31:13.910,-0.18,-1.113,-0.465
4/28/2023 14:31:13.920,-0.156,-1.109,-0.426
4/28/2023 14:31:13.930,-0.156,-1.066,-0.359
4/28/2023 14:31:13.940,-0.16,-0.945,-0.285
4/28/2023 14:31:13.950,-0.199,-0.809,-0.23
4/28/2023 14:31:13.960,-0.27,-0.703,-0.191
4/28/2023 14:31:13.970,-0.352,-0.652,-0.145
4/28/2023 14:31:13.980,-0.414,-0.629,-0.094
4/28/2023 14:31:13.990,-0.453,-0.617,-0.078
4/28/2023 14:31:14.000,-0.488,-0.629,-0.09
4/28/2023 14:31:14.010,-0.469,-0.629,-0.094
4/28/2023 14:31:14.020,-0.449,-0.613,-0.105
4/28/2023 14:31:14.030,-0.426,-0.574,-0.137
4/28/2023 14:31:14.040,-0.398,-0.535,-0.172
4/28/2023 14:31:14.050,-0.348,-0.508,-0.199
4/28/2023 14:31:14.060,-0.293,-0.531,-0.23
4/28/2023 14:31:14.070,-0.184,-0.586,-0.246
4/28/2023 14:31:14.080,-0.051,-0.641,-0.25
4/28/2023 14:31:14.090,0.035,-0.68,-0.258
4/28/2023 14:31:14.100,0.07,-0.73,-0.254
4/28/2023 14:31:14.110,0.105,-0.773,-0.262
4/28/2023 14:31:14.120,0.121,-0.797,-0.277
4/28/2023 14:31:14.130,0.109,-0.809,-0.289
4/28/2023 14:31:14.140,0.082,-0.828,-0.277
4/28/2023 14:31:14.150,0.059,-0.863,-0.246
4/28/2023 14:31:14.160,0.031,-0.938,-0.227
4/28/2023 14:31:14.170,-0.016,-1.035,-0.23
4/28/2023 14:31:14.180,-0.07,-1.145,-0.262
4/28/2023 14:31:14.190,-0.113,-1.219,-0.309
4/28/2023 14:31:14.200,-0.125,-1.262,-0.324
4/28/2023 14:31:14.210,-0.102,-1.273,-0.293
4/28/2023 14:31:14.220,-0.031,-1.234,-0.242
4/28/2023 14:31:14.230,0.059,-1.184,-0.219
4/28/2023 14:31:14.240,0.141,-1.18,-0.203
4/28/2023 14:31:14.250,0.195,-1.211,-0.203
4/28/2023 14:31:14.260,0.168,-1.266,-0.234
4/28/2023 14:31:14.270,0.082,-1.293,-0.246
4/28/2023 14:31:14.280,-0.098,-1.285,-0.191
4/28/2023 14:31:14.290,-0.367,-1.258,-0.215
4/28/2023 14:31:14.300,-0.625,-1.227,-0.461
4/28/2023 14:31:14.310,-0.785,-1.289,-0.703
4/28/2023 14:31:14.320,-0.809,-1.438,-0.77
4/28/2023 14:31:14.330,-0.688,-1.496,-0.809
4/28/2023 14:31:14.340,-0.559,-1.402,-0.828
4/28/2023 14:31:14.350,-0.473,-1.145,-0.695
4/28/2023 14:31:14.360,-0.414,-0.773,-0.484
4/28/2023 14:31:14.370,-0.344,-0.43,-0.293
4/28/2023 14:31:14.380,-0.285,-0.352,-0.145
4/28/2023 14:31:14.390,-0.313,-0.621,-0.039
4/28/2023 14:31:14.400,-0.449,-0.977,-0.102
4/28/2023 14:31:14.410,-0.555,-1.195,-0.27
4/28/2023 14:31:14.420,-0.516,-1.363,-0.359
4/28/2023 14:31:14.430,-0.402,-1.531,-0.375
4/28/2023 14:31:14.440,-0.332,-1.633,-0.41
4/28/2023 14:31:14.450,-0.289,-1.609,-0.445
4/28/2023 14:31:14.460,-0.195,-1.5,-0.441
4/28/2023 14:31:14.470,-0.055,-1.348,-0.395
4/28/2023 14:31:14.480,0.07,-1.16,-0.367
4/28/2023 14:31:14.490,0.121,-1.016,-0.355
4/28/2023 14:31:14.500,0.137,-0.895,-0.305
4/28/2023 14:31:14.510,0.164,-0.754,-0.254
4/28/2023 14:31:14.520,0.199,-0.617,-0.203
4/28/2023 14:31:14.530,0.215,-0.523,-0.156
4/28/2023 14:31:14.540,0.188,-0.488,-0.125
4/28/2023 14:31:14.550,0.105,-0.492,-0.109
4/28/2023 14:31:14.560,0.004,-0.523,-0.102
4/28/2023 14:31:14.570,-0.098,-0.555,-0.098
4/28/2023 14:31:14.580,-0.203,-0.582,-0.098
4/28/2023 14:31:14.590,-0.277,-0.617,-0.098
4/28/2023 14:31:14.600,-0.348,-0.676,-0.082
4/28/2023 14:31:14.610,-0.406,-0.727,-0.066
4/28/2023 14:31:14.620,-0.445,-0.746,-0.078
4/28/2023 14:31:14.630,-0.441,-0.746,-0.059
4/28/2023 14:31:14.640,-0.398,-0.723,-0.039
4/28/2023 14:31:14.650,-0.309,-0.711,-0.016
4/28/2023 14:31:14.660,-0.215,-0.695,-0.039
4/28/2023 14:31:14.670,-0.156,-0.664,-0.113
4/28/2023 14:31:14.680,-0.121,-0.684,-0.176
4/28/2023 14:31:14.690,-0.102,-0.762,-0.191
4/28/2023 14:31:14.700,-0.16,-0.883,-0.191
4/28/2023 14:31:14.710,-0.309,-0.973,-0.215
4/28/2023 14:31:14.720,-0.457,-1.055,-0.195
4/28/2023 14:31:14.730,-0.563,-1.18,-0.09
4/28/2023 14:31:14.740,-0.578,-1.305,0.004
4/28/2023 14:31:14.750,-0.48,-1.383,0.102
4/28/2023 14:31:14.760,-0.281,-1.449,0.145
4/28/2023 14:31:14.770,-0.113,-1.512,0.039
4/28/2023 14:31:14.780,-0.059,-1.555,-0.188
4/28/2023 14:31:14.790,-0.102,-1.664,-0.355
4/28/2023 14:31:14.800,-0.184,-1.762,-0.453
4/28/2023 14:31:14.810,-0.281,-1.727,-0.492
4/28/2023 14:31:14.820,-0.379,-1.449,-0.527
4/28/2023 14:31:14.830,-0.48,-1.203,-0.504
4/28/2023 14:31:14.840,-0.582,-1.109,-0.434
4/28/2023 14:31:14.850,-0.637,-1.051,-0.371
4/28/2023 14:31:14.860,-0.648,-0.992,-0.281
4/28/2023 14:31:14.870,-0.594,-0.859,-0.234
4/28/2023 14:31:14.880,-0.516,-0.73,-0.297
4/28/2023 14:31:14.890,-0.441,-0.75,-0.426
4/28/2023 14:31:14.900,-0.352,-0.91,-0.527
4/28/2023 14:31:14.910,-0.254,-1.094,-0.586
4/28/2023 14:31:14.920,-0.199,-1.168,-0.602
4/28/2023 14:31:14.930,-0.199,-1.117,-0.555
4/28/2023 14:31:14.940,-0.207,-0.988,-0.438
4/28/2023 14:31:14.950,-0.207,-0.84,-0.309
4/28/2023 14:31:14.960,-0.234,-0.723,-0.199
4/28/2023 14:31:14.970,-0.309,-0.668,-0.109
4/28/2023 14:31:14.980,-0.398,-0.641,-0.063
4/28/2023 14:31:14.990,-0.465,-0.605,-0.066
4/28/2023 14:31:15.000,-0.531,-0.594,-0.102
4/28/2023 14:31:15.010,-0.535,-0.59,-0.145
4/28/2023 14:31:15.020,-0.5,-0.586,-0.195
4/28/2023 14:31:15.030,-0.449,-0.57,-0.23
4/28/2023 14:31:15.040,-0.395,-0.543,-0.266
4/28/2023 14:31:15.050,-0.328,-0.516,-0.281
4/28/2023 14:31:15.060,-0.242,-0.523,-0.289
4/28/2023 14:31:15.070,-0.16,-0.578,-0.273
4/28/2023 14:31:15.080,-0.066,-0.645,-0.262
4/28/2023 14:31:15.090,0.02,-0.707,-0.254
4/28/2023 14:31:15.100,0.086,-0.758,-0.242
4/28/2023 14:31:15.110,0.129,-0.789,-0.23
4/28/2023 14:31:15.120,0.129,-0.797,-0.23
4/28/2023 14:31:15.130,0.102,-0.789,-0.242
4/28/2023 14:31:15.140,0.063,-0.785,-0.25
4/28/2023 14:31:15.150,0.016,-0.809,-0.246
4/28/2023 14:31:15.160,-0.043,-0.895,-0.25
4/28/2023 14:31:15.170,-0.094,-1.035,-0.25
4/28/2023 14:31:15.180,-0.145,-1.168,-0.254
4/28/2023 14:31:15.190,-0.168,-1.254,-0.27
4/28/2023 14:31:15.200,-0.16,-1.309,-0.266
4/28/2023 14:31:15.210,-0.156,-1.34,-0.258
4/28/2023 14:31:15.220,-0.141,-1.328,-0.266
4/28/2023 14:31:15.230,-0.07,-1.27,-0.273
4/28/2023 14:31:15.240,0.063,-1.223,-0.281
4/28/2023 14:31:15.250,0.219,-1.203,-0.262
4/28/2023 14:31:15.260,0.305,-1.215,-0.227
4/28/2023 14:31:15.270,0.215,-1.23,-0.195
4/28/2023 14:31:15.280,0.012,-1.246,-0.27
4/28/2023 14:31:15.290,-0.219,-1.293,-0.422
4/28/2023 14:31:15.300,-0.438,-1.418,-0.535
4/28/2023 14:31:15.310,-0.582,-1.516,-0.621
4/28/2023 14:31:15.320,-0.621,-1.496,-0.727
4/28/2023 14:31:15.330,-0.613,-1.406,-0.727
4/28/2023 14:31:15.340,-0.617,-1.227,-0.598
4/28/2023 14:31:15.350,-0.602,-0.938,-0.406
4/28/2023 14:31:15.360,-0.535,-0.629,-0.234
4/28/2023 14:31:15.370,-0.453,-0.492,-0.125
4/28/2023 14:31:15.380,-0.453,-0.684,-0.07
4/28/2023 14:31:15.390,-0.488,-0.945,-0.148
4/28/2023 14:31:15.400,-0.477,-1.145,-0.27
4/28/2023 14:31:15.410,-0.438,-1.34,-0.332
4/28/2023 14:31:15.420,-0.43,-1.523,-0.383
4/28/2023 14:31:15.430,-0.414,-1.598,-0.418
4/28/2023 14:31:15.440,-0.367,-1.566,-0.418
4/28/2023 14:31:15.450,-0.266,-1.469,-0.383
4/28/2023 14:31:15.460,-0.125,-1.344,-0.332
4/28/2023 14:31:15.470,0.012,-1.156,-0.297
4/28/2023 14:31:15.480,0.098,-0.957,-0.27
4/28/2023 14:31:15.490,0.117,-0.828,-0.215
4/28/2023 14:31:15.500,0.098,-0.723,-0.18
4/28/2023 14:31:15.510,0.09,-0.613,-0.156
4/28/2023 14:31:15.520,0.086,-0.527,-0.141
4/28/2023 14:31:15.530,0.07,-0.48,-0.121
4/28/2023 14:31:15.540,0.023,-0.461,-0.109
4/28/2023 14:31:15.550,-0.047,-0.465,-0.094
4/28/2023 14:31:15.560,-0.129,-0.5,-0.078
4/28/2023 14:31:15.570,-0.188,-0.531,-0.059
4/28/2023 14:31:15.580,-0.238,-0.57,-0.059
4/28/2023 14:31:15.590,-0.27,-0.613,-0.066
4/28/2023 14:31:15.600,-0.301,-0.676,-0.066
4/28/2023 14:31:15.610,-0.332,-0.73,-0.066
4/28/2023 14:31:15.620,-0.352,-0.781,-0.043
4/28/2023 14:31:15.630,-0.328,-0.805,-0.016
4/28/2023 14:31:15.640,-0.277,-0.809,-0.008
4/28/2023 14:31:15.650,-0.23,-0.785,-0.004
4/28/2023 14:31:15.660,-0.191,-0.758,-0.008
4/28/2023 14:31:15.670,-0.152,-0.75,0.004
4/28/2023 14:31:15.680,-0.117,-0.754,-0.031
4/28/2023 14:31:15.690,-0.125,-0.797,-0.105
4/28/2023 14:31:15.700,-0.211,-0.93,-0.129
4/28/2023 14:31:15.710,-0.34,-1.059,-0.129
4/28/2023 14:31:15.720,-0.426,-1.125,-0.102
4/28/2023 14:31:15.730,-0.457,-1.164,-0.07
4/28/2023 14:31:15.740,-0.449,-1.215,-0.051
4/28/2023 14:31:15.750,-0.398,-1.297,-0.059
4/28/2023 14:31:15.760,-0.391,-1.414,-0.152
4/28/2023 14:31:15.770,-0.465,-1.641,-0.309
4/28/2023 14:31:15.780,-0.566,-1.836,-0.5
4/28/2023 14:31:15.790,-0.617,-1.938,-0.633
4/28/2023 14:31:15.800,-0.613,-1.926,-0.746
4/28/2023 14:31:15.810,-0.582,-1.758,-0.785
4/28/2023 14:31:15.820,-0.578,-1.57,-0.719
4/28/2023 14:31:15.830,-0.605,-1.332,-0.598
4/28/2023 14:31:15.840,-0.582,-1.027,-0.418
4/28/2023 14:31:15.850,-0.48,-0.727,-0.195
4/28/2023 14:31:15.860,-0.395,-0.496,-0.055
4/28/2023 14:31:15.870,-0.332,-0.402,-0.051
4/28/2023 14:31:15.880,-0.289,-0.488,-0.152
4/28/2023 14:31:15.890,-0.27,-0.719,-0.313
4/28/2023 14:31:15.900,-0.297,-0.941,-0.473
4/28/2023 14:31:15.910,-0.367,-1.07,-0.586
4/28/2023 14:31:15.920,-0.461,-1.082,-0.613
4/28/2023 14:31:15.930,-0.527,-1.031,-0.559
4/28/2023 14:31:15.940,-0.535,-0.914,-0.457
4/28/2023 14:31:15.950,-0.531,-0.805,-0.355
4/28/2023 14:31:15.960,-0.523,-0.727,-0.27
4/28/2023 14:31:15.970,-0.527,-0.684,-0.203
4/28/2023 14:31:15.980,-0.523,-0.648,-0.16
4/28/2023 14:31:15.990,-0.5,-0.602,-0.113
4/28/2023 14:31:16.000,-0.496,-0.539,-0.105
4/28/2023 14:31:16.010,-0.461,-0.469,-0.129
4/28/2023 14:31:16.020,-0.457,-0.422,-0.184
4/28/2023 14:31:16.030,-0.441,-0.43,-0.242
4/28/2023 14:31:16.040,-0.395,-0.512,-0.297
4/28/2023 14:31:16.050,-0.301,-0.621,-0.316
4/28/2023 14:31:16.060,-0.188,-0.734,-0.332
4/28/2023 14:31:16.070,-0.09,-0.813,-0.359
4/28/2023 14:31:16.080,-0.012,-0.859,-0.371
4/28/2023 14:31:16.090,0.047,-0.875,-0.359
4/28/2023 14:31:16.100,0.078,-0.863,-0.336
4/28/2023 14:31:16.110,0.102,-0.805,-0.316
4/28/2023 14:31:16.120,0.098,-0.762,-0.281
4/28/2023 14:31:16.130,0.094,-0.734,-0.246
4/28/2023 14:31:16.140,0.086,-0.742,-0.219
4/28/2023 14:31:16.150,0.055,-0.77,-0.211
4/28/2023 14:31:16.160,0.008,-0.813,-0.215
4/28/2023 14:31:16.170,-0.047,-0.875,-0.227
4/28/2023 14:31:16.180,-0.082,-0.953,-0.242
4/28/2023 14:31:16.190,-0.145,-1.066,-0.262
4/28/2023 14:31:16.200,-0.203,-1.18,-0.273
4/28/2023 14:31:16.210,-0.211,-1.238,-0.297
4/28/2023 14:31:16.220,-0.145,-1.258,-0.32
4/28/2023 14:31:16.230,-0.039,-1.266,-0.336
4/28/2023 14:31:16.240,0.066,-1.297,-0.344
4/28/2023 14:31:16.250,0.141,-1.336,-0.316
4/28/2023 14:31:16.260,0.152,-1.332,-0.242
4/28/2023 14:31:16.270,0.031,-1.301,-0.117
4/28/2023 14:31:16.280,-0.23,-1.238,-0.129
4/28/2023 14:31:16.290,-0.52,-1.18,-0.34
4/28/2023 14:31:16.300,-0.754,-1.25,-0.492
4/28/2023 14:31:16.310,-0.789,-1.406,-0.609
4/28/2023 14:31:16.320,-0.621,-1.48,-0.758
4/28/2023 14:31:16.330,-0.457,-1.441,-0.793
4/28/2023 14:31:16.340,-0.402,-1.27,-0.656
4/28/2023 14:31:16.350,-0.383,-0.957,-0.398
4/28/2023 14:31:16.360,-0.324,-0.586,-0.223
4/28/2023 14:31:16.370,-0.332,-0.516,-0.203
4/28/2023 14:31:16.380,-0.441,-0.816,-0.25
4/28/2023 14:31:16.390,-0.504,-1.098,-0.34
4/28/2023 14:31:16.400,-0.492,-1.25,-0.398
4/28/2023 14:31:16.410,-0.457,-1.367,-0.43
4/28/2023 14:31:16.420,-0.41,-1.469,-0.406
4/28/2023 14:31:16.430,-0.359,-1.504,-0.363
4/28/2023 14:31:16.440,-0.277,-1.445,-0.328
4/28/2023 14:31:16.450,-0.18,-1.352,-0.305
4/28/2023 14:31:16.460,-0.082,-1.254,-0.281
4/28/2023 14:31:16.470,-0.008,-1.094,-0.27
4/28/2023 14:31:16.480,0.035,-0.914,-0.262
4/28/2023 14:31:16.490,0.063,-0.797,-0.191
4/28/2023 14:31:16.500,0.078,-0.68,-0.141
4/28/2023 14:31:16.510,0.094,-0.563,-0.121
4/28/2023 14:31:16.520,0.082,-0.473,-0.133
4/28/2023 14:31:16.530,0.051,-0.434,-0.129
4/28/2023 14:31:16.540,0,-0.426,-0.105
4/28/2023 14:31:16.550,-0.074,-0.441,-0.074
4/28/2023 14:31:16.560,-0.16,-0.488,-0.063
4/28/2023 14:31:16.570,-0.242,-0.539,-0.074
4/28/2023 14:31:16.580,-0.313,-0.609,-0.09
4/28/2023 14:31:16.590,-0.348,-0.695,-0.094
4/28/2023 14:31:16.600,-0.371,-0.785,-0.102
4/28/2023 14:31:16.610,-0.371,-0.844,-0.105
4/28/2023 14:31:16.620,-0.359,-0.887,-0.09
4/28/2023 14:31:16.630,-0.34,-0.902,-0.07
4/28/2023 14:31:16.640,-0.301,-0.895,-0.047
4/28/2023 14:31:16.650,-0.242,-0.871,-0.023
4/28/2023 14:31:16.660,-0.195,-0.848,-0.016
4/28/2023 14:31:16.670,-0.145,-0.836,-0.023
4/28/2023 14:31:16.680,-0.09,-0.844,-0.039
4/28/2023 14:31:16.690,-0.059,-0.891,-0.082
4/28/2023 14:31:16.700,-0.094,-0.984,-0.109
4/28/2023 14:31:16.710,-0.188,-1.102,-0.129
4/28/2023 14:31:16.720,-0.316,-1.223,-0.148
4/28/2023 14:31:16.730,-0.418,-1.375,-0.082
4/28/2023 14:31:16.740,-0.43,-1.488,-0.008
4/28/2023 14:31:16.750,-0.375,-1.504,0.031
4/28/2023 14:31:16.760,-0.305,-1.477,-0.004
4/28/2023 14:31:16.770,-0.246,-1.488,-0.176
4/28/2023 14:31:16.780,-0.277,-1.652,-0.285
4/28/2023 14:31:16.790,-0.383,-1.727,-0.391
4/28/2023 14:31:16.800,-0.488,-1.652,-0.5
4/28/2023 14:31:16.810,-0.516,-1.484,-0.547
4/28/2023 14:31:16.820,-0.555,-1.344,-0.492
4/28/2023 14:31:16.830,-0.605,-1.203,-0.445
4/28/2023 14:31:16.840,-0.641,-1.023,-0.41
4/28/2023 14:31:16.850,-0.617,-0.852,-0.316
4/28/2023 14:31:16.860,-0.547,-0.715,-0.207
4/28/2023 14:31:16.870,-0.469,-0.613,-0.203
4/28/2023 14:31:16.880,-0.418,-0.621,-0.277
4/28/2023 14:31:16.890,-0.363,-0.738,-0.348
4/28/2023 14:31:16.900,-0.301,-0.895,-0.375
4/28/2023 14:31:16.910,-0.266,-1.02,-0.387
4/28/2023 14:31:16.920,-0.285,-1.082,-0.391
4/28/2023 14:31:16.930,-0.309,-1.059,-0.395
4/28/2023 14:31:16.940,-0.297,-0.973,-0.363
4/28/2023 14:31:16.950,-0.293,-0.895,-0.313
4/28/2023 14:31:16.960,-0.324,-0.828,-0.277
4/28/2023 14:31:16.970,-0.348,-0.77,-0.227
4/28/2023 14:31:16.980,-0.363,-0.73,-0.168
4/28/2023 14:31:16.990,-0.359,-0.688,-0.117
4/28/2023 14:31:17.000,-0.367,-0.648,-0.09
4/28/2023 14:31:17.010,-0.371,-0.598,-0.105
4/28/2023 14:31:17.020,-0.371,-0.531,-0.156
4/28/2023 14:31:17.030,-0.363,-0.488,-0.184
4/28/2023 14:31:17.040,-0.336,-0.492,-0.199
4/28/2023 14:31:17.050,-0.297,-0.523,-0.219
4/28/2023 14:31:17.060,-0.23,-0.586,-0.234
4/28/2023 14:31:17.070,-0.152,-0.668,-0.246
4/28/2023 14:31:17.080,-0.082,-0.746,-0.262
4/28/2023 14:31:17.090,-0.027,-0.82,-0.273
4/28/2023 14:31:17.100,-0.004,-0.863,-0.277
4/28/2023 14:31:17.110,0.012,-0.879,-0.277
4/28/2023 14:31:17.120,0.02,-0.867,-0.273
4/28/2023 14:31:17.130,0.012,-0.844,-0.277
4/28/2023 14:31:17.140,0.004,-0.828,-0.273
4/28/2023 14:31:17.150,-0.004,-0.844,-0.254
4/28/2023 14:31:17.160,0,-0.891,-0.23
4/28/2023 14:31:17.170,-0.004,-0.965,-0.203
4/28/2023 14:31:17.180,-0.039,-1.055,-0.176
4/28/2023 14:31:17.190,-0.082,-1.117,-0.156
4/28/2023 14:31:17.200,-0.105,-1.152,-0.152
4/28/2023 14:31:17.210,-0.105,-1.184,-0.16
4/28/2023 14:31:17.220,-0.082,-1.219,-0.188
4/28/2023 14:31:17.230,-0.023,-1.23,-0.238
4/28/2023 14:31:17.240,0.082,-1.227,-0.285
4/28/2023 14:31:17.250,0.203,-1.219,-0.297
4/28/2023 14:31:17.260,0.266,-1.234,-0.266
4/28/2023 14:31:17.270,0.23,-1.242,-0.211
4/28/2023 14:31:17.280,0.063,-1.227,-0.121
4/28/2023 14:31:17.290,-0.176,-1.195,-0.137
4/28/2023 14:31:17.300,-0.453,-1.156,-0.324
4/28/2023 14:31:17.310,-0.727,-1.246,-0.5
4/28/2023 14:31:17.320,-0.863,-1.434,-0.629
4/28/2023 14:31:17.330,-0.809,-1.516,-0.785
4/28/2023 14:31:17.340,-0.625,-1.504,-0.793
4/28/2023 14:31:17.350,-0.477,-1.371,-0.656
4/28/2023 14:31:17.360,-0.375,-1.063,-0.453
4/28/2023 14:31:17.370,-0.277,-0.664,-0.238
4/28/2023 14:31:17.380,-0.254,-0.441,-0.152
4/28/2023 14:31:17.390,-0.344,-0.598,-0.133
4/28/2023 14:31:17.400,-0.422,-0.902,-0.191
4/28/2023 14:31:17.410,-0.461,-1.148,-0.273
4/28/2023 14:31:17.420,-0.484,-1.352,-0.344
4/28/2023 14:31:17.430,-0.512,-1.512,-0.434
4/28/2023 14:31:17.440,-0.492,-1.59,-0.496
4/28/2023 14:31:17.450,-0.438,-1.582,-0.504
4/28/2023 14:31:17.460,-0.332,-1.473,-0.473
4/28/2023 14:31:17.470,-0.184,-1.313,-0.402
4/28/2023 14:31:17.480,-0.035,-1.137,-0.309
4/28/2023 14:31:17.490,0.063,-0.949,-0.246
4/28/2023 14:31:17.500,0.063,-0.777,-0.223
4/28/2023 14:31:17.510,0.023,-0.688,-0.168
4/28/2023 14:31:17.520,0.008,-0.621,-0.125
4/28/2023 14:31:17.530,0.012,-0.555,-0.094
4/28/2023 14:31:17.540,0.004,-0.516,-0.082
4/28/2023 14:31:17.550,-0.055,-0.516,-0.086
4/28/2023 14:31:17.560,-0.121,-0.535,-0.086
4/28/2023 14:31:17.570,-0.184,-0.559,-0.082
4/28/2023 14:31:17.580,-0.246,-0.598,-0.09
4/28/2023 14:31:17.590,-0.289,-0.625,-0.105
4/28/2023 14:31:17.600,-0.336,-0.672,-0.117
4/28/2023 14:31:17.610,-0.375,-0.715,-0.125
4/28/2023 14:31:17.620,-0.395,-0.754,-0.113
4/28/2023 14:31:17.630,-0.395,-0.773,-0.094
4/28/2023 14:31:17.640,-0.379,-0.789,-0.035
4/28/2023 14:31:17.650,-0.352,-0.797,0.012
4/28/2023 14:31:17.660,-0.32,-0.785,0.02
4/28/2023 14:31:17.670,-0.27,-0.785,0.027
4/28/2023 14:31:17.680,-0.23,-0.805,0.039
4/28/2023 14:31:17.690,-0.199,-0.84,0.004
4/28/2023 14:31:17.700,-0.168,-0.871,-0.063
4/28/2023 14:31:17.710,-0.16,-0.945,-0.098
4/28/2023 14:31:17.720,-0.203,-1.035,-0.129
4/28/2023 14:31:17.730,-0.297,-1.094,-0.16
4/28/2023 14:31:17.740,-0.383,-1.188,-0.121
4/28/2023 14:31:17.750,-0.418,-1.305,-0.02
4/28/2023 14:31:17.760,-0.363,-1.332,0.059
4/28/2023 14:31:17.770,-0.25,-1.34,0.141
4/28/2023 14:31:17.780,-0.117,-1.363,0.168
4/28/2023 14:31:17.790,-0.027,-1.363,0.055
4/28/2023 14:31:17.800,-0.023,-1.414,-0.164
4/28/2023 14:31:17.810,-0.176,-1.582,-0.293
4/28/2023 14:31:17.820,-0.359,-1.68,-0.402
4/28/2023 14:31:17.830,-0.422,-1.527,-0.449
4/28/2023 14:31:17.840,-0.441,-1.285,-0.453
4/28/2023 14:31:17.850,-0.527,-1.191,-0.406
4/28/2023 14:31:17.860,-0.605,-1.105,-0.344
4/28/2023 14:31:17.870,-0.629,-0.973,-0.293
4/28/2023 14:31:17.880,-0.613,-0.84,-0.25
4/28/2023 14:31:17.890,-0.574,-0.719,-0.258
4/28/2023 14:31:17.900,-0.547,-0.691,-0.313
4/28/2023 14:31:17.910,-0.508,-0.809,-0.371
4/28/2023 14:31:17.920,-0.445,-1,-0.414
4/28/2023 14:31:17.930,-0.398,-1.156,-0.438
4/28/2023 14:31:17.940,-0.402,-1.227,-0.445
4/28/2023 14:31:17.950,-0.391,-1.172,-0.426
4/28/2023 14:31:17.960,-0.371,-1.035,-0.328
4/28/2023 14:31:17.970,-0.371,-0.879,-0.23
4/28/2023 14:31:17.980,-0.398,-0.742,-0.164
4/28/2023 14:31:17.990,-0.402,-0.668,-0.109
4/28/2023 14:31:18.000,-0.395,-0.637,-0.094
4/28/2023 14:31:18.010,-0.363,-0.641,-0.105
4/28/2023 14:31:18.020,-0.371,-0.672,-0.156
4/28/2023 14:31:18.030,-0.359,-0.711,-0.195
4/28/2023 14:31:18.040,-0.316,-0.711,-0.207
4/28/2023 14:31:18.050,-0.246,-0.652,-0.23
4/28/2023 14:31:18.060,-0.188,-0.609,-0.234
4/28/2023 14:31:18.070,-0.141,-0.602,-0.227
4/28/2023 14:31:18.080,-0.105,-0.645,-0.223
4/28/2023 14:31:18.090,-0.043,-0.715,-0.227
4/28/2023 14:31:18.100,0.027,-0.777,-0.223
4/28/2023 14:31:18.110,0.082,-0.805,-0.219
4/28/2023 14:31:18.120,0.105,-0.801,-0.211
4/28/2023 14:31:18.130,0.082,-0.789,-0.199
4/28/2023 14:31:18.140,0.047,-0.785,-0.207
4/28/2023 14:31:18.150,0.016,-0.781,-0.227
4/28/2023 14:31:18.160,-0.031,-0.797,-0.242
4/28/2023 14:31:18.170,-0.09,-0.844,-0.242
4/28/2023 14:31:18.180,-0.141,-0.918,-0.223
4/28/2023 14:31:18.190,-0.172,-1.012,-0.199
4/28/2023 14:31:18.200,-0.191,-1.105,-0.176
4/28/2023 14:31:18.210,-0.195,-1.18,-0.168
4/28/2023 14:31:18.220,-0.188,-1.219,-0.172
4/28/2023 14:31:18.230,-0.156,-1.266,-0.176
4/28/2023 14:31:18.240,-0.09,-1.289,-0.191
4/28/2023 14:31:18.250,0.027,-1.273,-0.238
4/28/2023 14:31:18.260,0.164,-1.27,-0.297
4/28/2023 14:31:18.270,0.297,-1.297,-0.301
4/28/2023 14:31:18.280,0.379,-1.324,-0.254
4/28/2023 14:31:18.290,0.387,-1.305,-0.191
4/28/2023 14:31:18.300,0.336,-1.242,-0.105
4/28/2023 14:31:18.310,0.234,-1.168,-0.016
4/28/2023 14:31:18.320,0.063,-1.094,-0.047
4/28/2023 14:31:18.330,-0.227,-1.039,-0.332
4/28/2023 14:31:18.340,-0.574,-1.188,-0.602
4/28/2023 14:31:18.350,-0.75,-1.418,-0.719
4/28/2023 14:31:18.360,-0.746,-1.438,-0.84
4/28/2023 14:31:18.370,-0.664,-1.281,-0.867
4/28/2023 14:31:18.380,-0.555,-1.043,-0.664
4/28/2023 14:31:18.390,-0.457,-0.762,-0.367
4/28/2023 14:31:18.400,-0.402,-0.57,-0.164
4/28/2023 14:31:18.410,-0.41,-0.52,-0.121
4/28/2023 14:31:18.420,-0.449,-0.648,-0.148
4/28/2023 14:31:18.430,-0.477,-0.871,-0.18
4/28/2023 14:31:18.440,-0.52,-1.09,-0.27
4/28/2023 14:31:18.450,-0.578,-1.262,-0.41
4/28/2023 14:31:18.460,-0.574,-1.445,-0.438
4/28/2023 14:31:18.470,-0.523,-1.594,-0.371
4/28/2023 14:31:18.480,-0.445,-1.602,-0.332
4/28/2023 14:31:18.490,-0.363,-1.512,-0.32
4/28/2023 14:31:18.500,-0.277,-1.383,-0.297
4/28/2023 14:31:18.510,-1.313,-1.035,-1
4/28/2023 14:31:18.520,-0.148,-1.086,0.098
4/28/2023 14:31:18.530,0.172,-0.996,-0.188
4/28/2023 14:31:18.540,0.293,-0.871,-0.223
4/28/2023 14:31:18.550,0.402,-0.941,0.195
4/28/2023 14:31:18.560,-0.016,-0.566,-0.355
4/28/2023 14:31:18.570,-0.566,-0.559,-0.363
4/28/2023 14:31:18.580,0.164,-0.586,0.281
4/28/2023 14:31:18.590,1.105,-0.199,0.324
4/28/2023 14:31:18.600,1.383,-0.332,0.23
4/28/2023 14:31:18.610,-0.059,-0.891,-0.527
4/28/2023 14:31:18.620,-0.371,-0.887,-0.477
4/28/2023 14:31:18.630,0.254,-0.785,0.156
4/28/2023 14:31:18.640,1.008,-0.699,0.242
4/28/2023 14:31:18.650,0.191,-0.633,-0.348
4/28/2023 14:31:18.660,-1.02,-1.086,-0.648
4/28/2023 14:31:18.670,-0.633,-1.129,-0.254
4/28/2023 14:31:18.680,0.203,-0.934,0.117
4/28/2023 14:31:18.690,0.352,-0.836,0.035
4/28/2023 14:31:18.700,-0.047,-0.93,-0.137
4/28/2023 14:31:18.710,-0.18,-1,-0.121
4/28/2023 14:31:18.720,0.008,-0.938,-0.051
4/28/2023 14:31:18.730,0.082,-0.855,-0.09
4/28/2023 14:31:18.740,-0.07,-0.898,-0.117
4/28/2023 14:31:18.750,-0.242,-1.008,-0.059
4/28/2023 14:31:18.760,-0.285,-1.07,-0.016
4/28/2023 14:31:18.770,-0.281,-1.113,-0.02
4/28/2023 14:31:18.780,-0.289,-1.188,-0.063
4/28/2023 14:31:18.790,-0.277,-1.316,-0.141
4/28/2023 14:31:18.800,-0.133,-1.668,-0.148
4/28/2023 14:31:18.810,0.07,-2.008,-0.117
4/28/2023 14:31:18.820,0.141,-2.078,-0.242
4/28/2023 14:31:18.830,0.199,-1.895,-0.391
4/28/2023 14:31:18.840,0.266,-1.563,-0.457
4/28/2023 14:31:18.850,0.25,-1.285,-0.422
4/28/2023 14:31:18.860,0.141,-1.094,-0.293
4/28/2023 14:31:18.870,0.027,-0.918,-0.156
4/28/2023 14:31:18.880,-0.02,-0.75,-0.02
4/28/2023 14:31:18.890,-0.066,-0.605,0.043
4/28/2023 14:31:18.900,-0.137,-0.5,0.004
4/28/2023 14:31:18.910,-0.215,-0.457,-0.105
4/28/2023 14:31:18.920,-0.281,-0.516,-0.273
4/28/2023 14:31:18.930,-0.316,-0.707,-0.383
4/28/2023 14:31:18.940,-0.305,-0.996,-0.344
4/28/2023 14:31:18.950,-0.27,-1.227,-0.273
4/28/2023 14:31:18.960,-0.238,-1.273,-0.254
4/28/2023 14:31:18.970,-0.207,-1.184,-0.199
4/28/2023 14:31:18.980,-0.168,-1.023,-0.141
4/28/2023 14:31:18.990,-0.125,-0.879,-0.109
4/28/2023 14:31:19.000,-0.078,-0.805,-0.098
4/28/2023 14:31:19.010,0.004,-0.84,-0.086
4/28/2023 14:31:19.020,0.063,-0.91,-0.105
4/28/2023 14:31:19.030,0.078,-0.957,-0.141
4/28/2023 14:31:19.040,0.066,-0.961,-0.16
4/28/2023 14:31:19.050,0.063,-0.93,-0.172
4/28/2023 14:31:19.060,0.055,-0.867,-0.164
4/28/2023 14:31:19.070,0.051,-0.813,-0.137
4/28/2023 14:31:19.080,0.059,-0.766,-0.117
4/28/2023 14:31:19.090,0.066,-0.75,-0.105
4/28/2023 14:31:19.100,0.117,-0.762,-0.121
4/28/2023 14:31:19.110,0.16,-0.797,-0.141
4/28/2023 14:31:19.120,0.195,-0.828,-0.141
4/28/2023 14:31:19.130,0.203,-0.824,-0.133
4/28/2023 14:31:19.140,0.184,-0.797,-0.129
4/28/2023 14:31:19.150,0.148,-0.777,-0.129
4/28/2023 14:31:19.160,0.105,-0.789,-0.141
4/28/2023 14:31:19.170,0.082,-0.828,-0.156
4/28/2023 14:31:19.180,0.07,-0.871,-0.176
4/28/2023 14:31:19.190,0.066,-0.914,-0.188
4/28/2023 14:31:19.200,0.078,-0.945,-0.176
4/28/2023 14:31:19.210,0.07,-0.949,-0.168
4/28/2023 14:31:19.220,0.066,-0.93,-0.176
4/28/2023 14:31:19.230,0.078,-0.918,-0.18
4/28/2023 14:31:19.240,0.109,-0.926,-0.188
4/28/2023 14:31:19.250,0.168,-0.945,-0.203
4/28/2023 14:31:19.260,0.258,-0.965,-0.246
4/28/2023 14:31:19.270,0.383,-0.992,-0.313
4/28/2023 14:31:19.280,0.512,-1.031,-0.332
4/28/2023 14:31:19.290,0.574,-1.078,-0.289
4/28/2023 14:31:19.300,0.5,-1.117,-0.215
4/28/2023 14:31:19.310,0.285,-1.18,-0.203
4/28/2023 14:31:19.320,0.004,-1.285,-0.383
4/28/2023 14:31:19.330,-0.168,-1.426,-0.563
4/28/2023 14:31:19.340,-0.176,-1.555,-0.523
4/28/2023 14:31:19.350,-0.16,-1.617,-0.422
4/28/2023 14:31:19.360,-0.266,-1.469,-0.477
4/28/2023 14:31:19.370,-0.383,-1.199,-0.453
4/28/2023 14:31:19.380,-0.422,-0.957,-0.234
4/28/2023 14:31:19.390,-0.402,-0.824,0
4/28/2023 14:31:19.400,-0.453,-0.793,-0.008
4/28/2023 14:31:19.410,-0.543,-0.891,-0.168
4/28/2023 14:31:19.420,-0.512,-1.16,-0.281
4/28/2023 14:31:19.430,-0.391,-1.457,-0.324
4/28/2023 14:31:19.440,-0.25,-1.68,-0.324
4/28/2023 14:31:19.450,-0.133,-1.773,-0.34
4/28/2023 14:31:19.460,-0.008,-1.727,-0.383
4/28/2023 14:31:19.470,0.121,-1.609,-0.402
4/28/2023 14:31:19.480,0.219,-1.473,-0.371
4/28/2023 14:31:19.490,0.277,-1.32,-0.309
4/28/2023 14:31:19.500,0.285,-1.133,-0.254
4/28/2023 14:31:19.510,0.266,-0.914,-0.211
4/28/2023 14:31:19.520,0.184,-0.734,-0.141
4/28/2023 14:31:19.530,0.102,-0.617,-0.063
4/28/2023 14:31:19.540,0.047,-0.559,-0.031
4/28/2023 14:31:19.550,0.027,-0.516,-0.039
4/28/2023 14:31:19.560,0.035,-0.484,-0.078
4/28/2023 14:31:19.570,0.043,-0.488,-0.098
4/28/2023 14:31:19.580,0.051,-0.527,-0.086
4/28/2023 14:31:19.590,0.063,-0.59,-0.051
4/28/2023 14:31:19.600,0.082,-0.652,-0.023
4/28/2023 14:31:19.610,0.109,-0.715,-0.016
4/28/2023 14:31:19.620,0.137,-0.738,-0.035
4/28/2023 14:31:19.630,0.164,-0.754,-0.039
4/28/2023 14:31:19.640,0.164,-0.773,-0.039
4/28/2023 14:31:19.650,0.148,-0.797,-0.027
4/28/2023 14:31:19.660,0.152,-0.844,0.016
4/28/2023 14:31:19.670,0.168,-0.883,0.043
4/28/2023 14:31:19.680,0.203,-0.91,0.074
4/28/2023 14:31:19.690,0.219,-0.945,0.086
4/28/2023 14:31:19.700,0.195,-0.961,0.086
4/28/2023 14:31:19.710,0.16,-0.957,0.043
4/28/2023 14:31:19.720,0.117,-0.961,-0.004
4/28/2023 14:31:19.730,0.047,-0.996,-0.02
4/28/2023 14:31:19.740,-0.035,-1.07,-0.008
4/28/2023 14:31:19.750,-0.066,-1.172,0.035
4/28/2023 14:31:19.760,-0.016,-1.297,0.113
4/28/2023 14:31:19.770,0.141,-1.41,0.203
4/28/2023 14:31:19.780,0.332,-1.473,0.258
4/28/2023 14:31:19.790,0.434,-1.43,0.191
4/28/2023 14:31:19.800,0.344,-1.277,-0.043
4/28/2023 14:31:19.810,0.172,-1.184,-0.34
4/28/2023 14:31:19.820,0.008,-1.32,-0.336
4/28/2023 14:31:19.830,-0.16,-1.402,-0.363
4/28/2023 14:31:19.840,-0.383,-1.285,-0.539
4/28/2023 14:31:19.850,-0.465,-1.25,-0.504
4/28/2023 14:31:19.860,-0.504,-1.27,-0.367
4/28/2023 14:31:19.870,-0.598,-1.195,-0.402
4/28/2023 14:31:19.880,-0.609,-1.055,-0.582
4/28/2023 14:31:19.890,-0.555,-1.086,-0.613
4/28/2023 14:31:19.900,-0.398,-1.27,-0.484
4/28/2023 14:31:19.910,-0.27,-1.262,-0.504
4/28/2023 14:31:19.920,-0.086,-1.191,-0.422
4/28/2023 14:31:19.930,0.066,-1.086,-0.328
4/28/2023 14:31:19.940,0.121,-0.957,-0.289
4/28/2023 14:31:19.950,0.18,-0.84,-0.227
4/28/2023 14:31:19.960,0.238,-0.789,-0.16
4/28/2023 14:31:19.970,0.23,-0.789,-0.141
4/28/2023 14:31:19.980,0.16,-0.797,-0.141
4/28/2023 14:31:19.990,0.07,-0.777,-0.16
4/28/2023 14:31:20.000,-0.031,-0.727,-0.168
4/28/2023 14:31:20.010,-0.113,-0.672,-0.176
4/28/2023 14:31:20.020,-0.184,-0.621,-0.191
4/28/2023 14:31:20.030,-0.223,-0.574,-0.199
4/28/2023 14:31:20.040,-0.277,-0.555,-0.211
4/28/2023 14:31:20.050,-0.328,-0.563,-0.238
4/28/2023 14:31:20.060,-0.316,-0.594,-0.27
4/28/2023 14:31:20.070,-0.258,-0.625,-0.309
4/28/2023 14:31:20.080,-0.164,-0.668,-0.32
4/28/2023 14:31:20.090,-0.074,-0.723,-0.316
4/28/2023 14:31:20.100,0,-0.789,-0.316
4/28/2023 14:31:20.110,0.074,-0.844,-0.316
4/28/2023 14:31:20.120,0.168,-0.863,-0.316
4/28/2023 14:31:20.130,0.258,-0.844,-0.32
4/28/2023 14:31:20.140,0.328,-0.813,-0.32
4/28/2023 14:31:20.150,0.387,-0.801,-0.297
4/28/2023 14:31:20.160,0.43,-0.785,-0.254
4/28/2023 14:31:20.170,0.453,-0.773,-0.211
4/28/2023 14:31:20.180,0.43,-0.766,-0.191
4/28/2023 14:31:20.190,0.379,-0.781,-0.207
4/28/2023 14:31:20.200,0.336,-0.836,-0.227
4/28/2023 14:31:20.210,0.285,-0.941,-0.23
4/28/2023 14:31:20.220,0.238,-1.047,-0.254
4/28/2023 14:31:20.230,0.219,-1.121,-0.305
4/28/2023 14:31:20.240,0.25,-1.164,-0.305
4/28/2023 14:31:20.250,0.328,-1.176,-0.242
4/28/2023 14:31:20.260,0.414,-1.176,-0.227
4/28/2023 14:31:20.270,0.488,-1.207,-0.234
4/28/2023 14:31:20.280,0.527,-1.27,-0.238
4/28/2023 14:31:20.290,0.488,-1.309,-0.242
4/28/2023 14:31:20.300,0.359,-1.313,-0.27
4/28/2023 14:31:20.310,0.152,-1.313,-0.383
4/28/2023 14:31:20.320,-0.074,-1.305,-0.699
4/28/2023 14:31:20.330,-0.16,-1.344,-0.961
4/28/2023 14:31:20.340,-0.07,-1.461,-0.859
4/28/2023 14:31:20.350,-0.027,-1.398,-0.863
4/28/2023 14:31:20.360,-0.059,-1.184,-0.82
4/28/2023 14:31:20.370,-0.055,-0.977,-0.531
4/28/2023 14:31:20.380,-0.074,-0.77,-0.188
4/28/2023 14:31:20.390,-0.141,-0.559,-0.094
4/28/2023 14:31:20.400,-0.188,-0.484,-0.25
4/28/2023 14:31:20.410,-0.184,-0.641,-0.344
4/28/2023 14:31:20.420,-0.18,-1.012,-0.367
4/28/2023 14:31:20.430,-0.188,-1.363,-0.453
4/28/2023 14:31:20.440,-0.172,-1.578,-0.551
4/28/2023 14:31:20.450,-0.105,-1.676,-0.582
4/28/2023 14:31:20.460,0,-1.652,-0.59
4/28/2023 14:31:20.470,0.098,-1.559,-0.605
4/28/2023 14:31:20.480,0.188,-1.438,-0.602
4/28/2023 14:31:20.490,0.305,-1.281,-0.527
4/28/2023 14:31:20.500,0.398,-1.094,-0.434
4/28/2023 14:31:20.510,0.445,-0.906,-0.344
4/28/2023 14:31:20.520,0.43,-0.734,-0.293
4/28/2023 14:31:20.530,0.375,-0.617,-0.25
4/28/2023 14:31:20.540,0.309,-0.543,-0.223
4/28/2023 14:31:20.550,0.258,-0.516,-0.18
4/28/2023 14:31:20.560,0.195,-0.523,-0.148
4/28/2023 14:31:20.570,0.121,-0.563,-0.141
4/28/2023 14:31:20.580,0.059,-0.602,-0.148
4/28/2023 14:31:20.590,0.016,-0.648,-0.152
4/28/2023 14:31:20.600,-0.012,-0.703,-0.141
4/28/2023 14:31:20.610,-0.051,-0.762,-0.125
4/28/2023 14:31:20.620,-0.074,-0.797,-0.129
4/28/2023 14:31:20.630,-0.082,-0.785,-0.141
4/28/2023 14:31:20.640,-0.059,-0.75,-0.137
4/28/2023 14:31:20.650,0.004,-0.715,-0.102
4/28/2023 14:31:20.660,0.063,-0.684,-0.07
4/28/2023 14:31:20.670,0.117,-0.652,-0.066
4/28/2023 14:31:20.680,0.152,-0.656,-0.082
4/28/2023 14:31:20.690,0.16,-0.695,-0.102
4/28/2023 14:31:20.700,0.121,-0.77,-0.137
4/28/2023 14:31:20.710,0.051,-0.863,-0.195
4/28/2023 14:31:20.720,-0.016,-0.918,-0.234
4/28/2023 14:31:20.730,-0.07,-0.977,-0.254
4/28/2023 14:31:20.740,-0.109,-1.063,-0.23
4/28/2023 14:31:20.750,-0.121,-1.18,-0.18
4/28/2023 14:31:20.760,-0.086,-1.281,-0.113
4/28/2023 14:31:20.770,-0.004,-1.355,-0.051
4/28/2023 14:31:20.780,0.098,-1.422,0
4/28/2023 14:31:20.790,0.105,-1.422,-0.047
4/28/2023 14:31:20.800,0.07,-1.375,-0.184
4/28/2023 14:31:20.810,0.105,-1.391,-0.277
4/28/2023 14:31:20.820,0.086,-1.426,-0.352
4/28/2023 14:31:20.830,-0.082,-1.41,-0.438
4/28/2023 14:31:20.840,-0.191,-1.375,-0.512
4/28/2023 14:31:20.850,-0.211,-1.348,-0.504
4/28/2023 14:31:20.860,-0.293,-1.273,-0.504
4/28/2023 14:31:20.870,-0.438,-1.18,-0.512
4/28/2023 14:31:20.880,-0.484,-1.035,-0.426
4/28/2023 14:31:20.890,-0.41,-0.871,-0.313
4/28/2023 14:31:20.900,-0.316,-0.734,-0.285
4/28/2023 14:31:20.910,-0.184,-0.719,-0.336
4/28/2023 14:31:20.920,-0.012,-0.828,-0.391
4/28/2023 14:31:20.930,0.098,-0.973,-0.484
4/28/2023 14:31:20.940,0.145,-1.113,-0.594
4/28/2023 14:31:20.950,0.176,-1.16,-0.574
4/28/2023 14:31:20.960,0.16,-1.066,-0.5
4/28/2023 14:31:20.970,0.086,-0.965,-0.402
4/28/2023 14:31:20.980,-0.027,-0.902,-0.309
4/28/2023 14:31:20.990,-0.105,-0.863,-0.277
4/28/2023 14:31:21.000,-0.168,-0.813,-0.266
4/28/2023 14:31:21.010,-0.211,-0.797,-0.211
4/28/2023 14:31:21.020,-0.285,-0.77,-0.242
4/28/2023 14:31:21.030,-0.32,-0.727,-0.195
4/28/2023 14:31:21.040,-0.316,-0.723,-0.109
4/28/2023 14:31:21.050,-0.266,-0.727,-0.152
4/28/2023 14:31:21.060,-0.211,-0.719,-0.234
4/28/2023 14:31:21.070,-0.152,-0.73,-0.277
4/28/2023 14:31:21.080,-0.09,-0.734,-0.316
4/28/2023 14:31:21.090,-0.047,-0.719,-0.34
4/28/2023 14:31:21.100,-0.008,-0.715,-0.34
4/28/2023 14:31:21.110,0.027,-0.711,-0.32
4/28/2023 14:31:21.120,0.063,-0.711,-0.293
4/28/2023 14:31:21.130,0.07,-0.73,-0.273
4/28/2023 14:31:21.140,0.066,-0.77,-0.277
4/28/2023 14:31:21.150,0.059,-0.832,-0.297
4/28/2023 14:31:21.160,0.055,-0.895,-0.336
4/28/2023 14:31:21.170,0.059,-0.953,-0.359
4/28/2023 14:31:21.180,0.078,-1.008,-0.355
4/28/2023 14:31:21.190,0.105,-1.066,-0.352
4/28/2023 14:31:21.200,0.109,-1.133,-0.352
4/28/2023 14:31:21.210,0.113,-1.156,-0.355
4/28/2023 14:31:21.220,0.117,-1.145,-0.332
4/28/2023 14:31:21.230,0.129,-1.109,-0.305
4/28/2023 14:31:21.240,0.145,-1.078,-0.301
4/28/2023 14:31:21.250,0.18,-1.02,-0.336
4/28/2023 14:31:21.260,0.254,-0.941,-0.367
4/28/2023 14:31:21.270,0.355,-0.898,-0.375
4/28/2023 14:31:21.280,0.422,-0.926,-0.383
4/28/2023 14:31:21.290,0.418,-1.012,-0.418
4/28/2023 14:31:21.300,0.348,-1.109,-0.41
4/28/2023 14:31:21.310,0.188,-1.195,-0.375
4/28/2023 14:31:21.320,0.004,-1.27,-0.363
4/28/2023 14:31:21.330,-0.141,-1.344,-0.441
4/28/2023 14:31:21.340,-0.242,-1.422,-0.547
4/28/2023 14:31:21.350,-0.277,-1.414,-0.559
4/28/2023 14:31:21.360,-0.254,-1.262,-0.543
4/28/2023 14:31:21.370,-0.211,-1.078,-0.547
4/28/2023 14:31:21.380,-0.195,-0.984,-0.473
4/28/2023 14:31:21.390,-0.195,-0.922,-0.301
4/28/2023 14:31:21.400,-0.219,-0.773,-0.223
4/28/2023 14:31:21.410,-0.234,-0.625,-0.18
4/28/2023 14:31:21.420,-0.223,-0.602,-0.137
4/28/2023 14:31:21.430,-0.242,-0.758,-0.121
4/28/2023 14:31:21.440,-0.27,-0.996,-0.145
4/28/2023 14:31:21.450,-0.234,-1.207,-0.168
4/28/2023 14:31:21.460,-0.121,-1.363,-0.199
4/28/2023 14:31:21.470,0.051,-1.512,-0.211
4/28/2023 14:31:21.480,0.219,-1.543,-0.25
4/28/2023 14:31:21.490,0.348,-1.461,-0.301
4/28/2023 14:31:21.500,0.43,-1.324,-0.27
4/28/2023 14:31:21.510,0.477,-1.199,-0.227
4/28/2023 14:31:21.520,0.477,-1.082,-0.215
4/28/2023 14:31:21.530,0.457,-0.992,-0.191
4/28/2023 14:31:21.540,0.422,-0.902,-0.145
4/28/2023 14:31:21.550,0.355,-0.805,-0.094
4/28/2023 14:31:21.560,0.281,-0.688,-0.023
4/28/2023 14:31:21.570,0.215,-0.594,0.043
4/28/2023 14:31:21.580,0.145,-0.563,0.074
4/28/2023 14:31:21.590,0.086,-0.594,0.074
4/28/2023 14:31:21.600,0.051,-0.652,0.059
4/28/2023 14:31:21.610,0.047,-0.707,0.047
4/28/2023 14:31:21.620,0.063,-0.754,0.035
4/28/2023 14:31:21.630,0.086,-0.793,0.043
4/28/2023 14:31:21.640,0.145,-0.801,0.039
4/28/2023 14:31:21.650,0.168,-0.805,0.039
4/28/2023 14:31:21.660,0.191,-0.793,0.023
4/28/2023 14:31:21.670,0.207,-0.781,0.012
4/28/2023 14:31:21.680,0.215,-0.766,0.004
4/28/2023 14:31:21.690,0.211,-0.75,0.004
4/28/2023 14:31:21.700,0.195,-0.73,0.008
4/28/2023 14:31:21.710,0.168,-0.707,0.027
4/28/2023 14:31:21.720,0.137,-0.684,0.004
4/28/2023 14:31:21.730,0.105,-0.695,-0.02
4/28/2023 14:31:21.740,0.074,-0.738,-0.047
4/28/2023 14:31:21.750,0.008,-0.789,-0.082
4/28/2023 14:31:21.760,-0.055,-0.914,-0.121
4/28/2023 14:31:21.770,-0.082,-1.07,-0.156
4/28/2023 14:31:21.780,-0.039,-1.242,-0.227
4/28/2023 14:31:21.790,0.063,-1.383,-0.258
4/28/2023 14:31:21.800,0.223,-1.398,-0.254
4/28/2023 14:31:21.810,0.336,-1.355,-0.309
4/28/2023 14:31:21.820,0.313,-1.313,-0.379
4/28/2023 14:31:21.830,0.059,-1.305,-0.527
4/28/2023 14:31:21.840,-0.313,-1.395,-0.641
4/28/2023 14:31:21.850,-0.59,-1.563,-0.676
4/28/2023 14:31:21.860,-0.68,-1.824,-0.582
4/28/2023 14:31:21.870,-0.66,-1.828,-0.531
4/28/2023 14:31:21.880,-0.621,-1.535,-0.535
4/28/2023 14:31:21.890,-0.602,-1.191,-0.477
4/28/2023 14:31:21.900,-0.625,-0.945,-0.375
4/28/2023 14:31:21.910,-0.598,-0.84,-0.309
4/28/2023 14:31:21.920,-0.496,-0.809,-0.359
4/28/2023 14:31:21.930,-0.406,-0.902,-0.477
4/28/2023 14:31:21.940,-0.309,-1.078,-0.496
4/28/2023 14:31:21.950,-0.277,-1.133,-0.449
4/28/2023 14:31:21.960,-0.328,-1.066,-0.398
4/28/2023 14:31:21.970,-0.41,-1.008,-0.367
4/28/2023 14:31:21.980,-0.469,-0.98,-0.355
4/28/2023 14:31:21.990,-0.484,-0.977,-0.336
4/28/2023 14:31:22.000,-0.457,-0.957,-0.309
4/28/2023 14:31:22.010,-0.402,-0.883,-0.293
4/28/2023 14:31:22.020,-0.352,-0.793,-0.289
4/28/2023 14:31:22.030,-0.277,-0.758,-0.285
4/28/2023 14:31:22.040,-0.164,-0.77,-0.281
4/28/2023 14:31:22.050,-0.059,-0.777,-0.273
4/28/2023 14:31:22.060,0.008,-0.813,-0.293
4/28/2023 14:31:22.070,0.039,-0.867,-0.324
4/28/2023 14:31:22.080,0.063,-0.902,-0.336
4/28/2023 14:31:22.090,0.074,-0.91,-0.348
4/28/2023 14:31:22.100,0.082,-0.891,-0.344
4/28/2023 14:31:22.110,0.082,-0.859,-0.332
4/28/2023 14:31:22.120,0.063,-0.828,-0.324
4/28/2023 14:31:22.130,0.043,-0.793,-0.328
4/28/2023 14:31:22.140,0.027,-0.746,-0.328
4/28/2023 14:31:22.150,0.027,-0.707,-0.34
4/28/2023 14:31:22.160,0.043,-0.676,-0.344
4/28/2023 14:31:22.170,0.066,-0.672,-0.367
4/28/2023 14:31:22.180,0.086,-0.68,-0.41
4/28/2023 14:31:22.190,0.121,-0.68,-0.461
4/28/2023 14:31:22.200,0.164,-0.676,-0.484
4/28/2023 14:31:22.210,0.195,-0.703,-0.488
4/28/2023 14:31:22.220,0.184,-0.75,-0.504
4/28/2023 14:31:22.230,0.156,-0.805,-0.531
4/28/2023 14:31:22.240,0.137,-0.848,-0.527
4/28/2023 14:31:22.250,0.102,-0.875,-0.52
4/28/2023 14:31:22.260,0.043,-0.883,-0.523
4/28/2023 14:31:22.270,0.004,-0.891,-0.531
4/28/2023 14:31:22.280,-0.031,-0.934,-0.523
4/28/2023 14:31:22.290,-0.117,-1.016,-0.488
4/28/2023 14:31:22.300,-0.246,-1.137,-0.434
4/28/2023 14:31:22.310,-0.383,-1.234,-0.5
4/28/2023 14:31:22.320,-0.484,-1.398,-0.59
4/28/2023 14:31:22.330,-0.492,-1.559,-0.516
4/28/2023 14:31:22.340,-0.426,-1.473,-0.414
4/28/2023 14:31:22.350,-0.395,-1.254,-0.375
4/28/2023 14:31:22.360,-0.348,-1.07,-0.258
4/28/2023 14:31:22.370,-0.313,-1.004,-0.031
4/28/2023 14:31:22.380,-0.383,-0.949,0.098
4/28/2023 14:31:22.390,-0.449,-0.898,0.117
4/28/2023 14:31:22.400,-0.375,-0.957,0.137
4/28/2023 14:31:22.410,-0.246,-1.082,0.109
4/28/2023 14:31:22.420,-0.152,-1.18,0.043
4/28/2023 14:31:22.430,-0.047,-1.254,-0.02
4/28/2023 14:31:22.440,0.086,-1.316,-0.063
4/28/2023 14:31:22.450,0.199,-1.402,-0.074
4/28/2023 14:31:22.460,0.242,-1.477,-0.117
4/28/2023 14:31:22.470,0.246,-1.543,-0.164
4/28/2023 14:31:22.480,0.234,-1.539,-0.188
4/28/2023 14:31:22.490,0.18,-1.43,-0.172
4/28/2023 14:31:22.500,0.063,-1.281,-0.133
4/28/2023 14:31:22.510,-0.02,-1.074,-0.078
4/28/2023 14:31:22.520,-0.086,-0.844,-0.027
4/28/2023 14:31:22.530,-0.152,-0.648,0.031
4/28/2023 14:31:22.540,-0.199,-0.508,0.094
4/28/2023 14:31:22.550,-0.203,-0.449,0.133
4/28/2023 14:31:22.560,-0.172,-0.469,0.137
4/28/2023 14:31:22.570,-0.129,-0.52,0.094
4/28/2023 14:31:22.580,-0.059,-0.621,0.039
4/28/2023 14:31:22.590,0.031,-0.715,-0.02
4/28/2023 14:31:22.600,0.117,-0.777,-0.055
4/28/2023 14:31:22.610,0.172,-0.793,-0.082
4/28/2023 14:31:22.620,0.203,-0.77,-0.094
4/28/2023 14:31:22.630,0.223,-0.742,-0.09
4/28/2023 14:31:22.640,0.219,-0.734,-0.094
4/28/2023 14:31:22.650,0.207,-0.734,-0.109
4/28/2023 14:31:22.660,0.168,-0.754,-0.117
4/28/2023 14:31:22.670,0.109,-0.77,-0.109
4/28/2023 14:31:22.680,0.066,-0.781,-0.117
4/28/2023 14:31:22.690,0.063,-0.785,-0.141
4/28/2023 14:31:22.700,0.102,-0.82,-0.18
4/28/2023 14:31:22.710,0.191,-0.855,-0.223
4/28/2023 14:31:22.720,0.281,-0.891,-0.254
4/28/2023 14:31:22.730,0.355,-0.918,-0.262
4/28/2023 14:31:22.740,0.402,-0.965,-0.258
4/28/2023 14:31:22.750,0.414,-1.059,-0.27
4/28/2023 14:31:22.760,0.445,-1.145,-0.277
4/28/2023 14:31:22.770,0.484,-1.211,-0.277
4/28/2023 14:31:22.780,0.504,-1.25,-0.277
4/28/2023 14:31:22.790,0.504,-1.262,-0.27
4/28/2023 14:31:22.800,0.492,-1.25,-0.25
4/28/2023 14:31:22.810,0.449,-1.223,-0.246
4/28/2023 14:31:22.820,0.371,-1.203,-0.277
4/28/2023 14:31:22.830,0.223,-1.242,-0.348
4/28/2023 14:31:22.840,0.047,-1.328,-0.453
4/28/2023 14:31:22.850,-0.109,-1.453,-0.523
4/28/2023 14:31:22.860,-0.242,-1.582,-0.523
4/28/2023 14:31:22.870,-0.313,-1.551,-0.492
4/28/2023 14:31:22.880,-0.348,-1.402,-0.441
4/28/2023 14:31:22.890,-0.449,-1.273,-0.375
4/28/2023 14:31:22.900,-0.578,-1.141,-0.348
4/28/2023 14:31:22.910,-0.66,-1.016,-0.348
4/28/2023 14:31:22.920,-0.637,-0.977,-0.344
4/28/2023 14:31:22.930,-0.523,-0.957,-0.352
4/28/2023 14:31:22.940,-0.391,-0.938,-0.395
4/28/2023 14:31:22.950,-0.242,-0.949,-0.445
4/28/2023 14:31:22.960,-0.137,-1.008,-0.48
4/28/2023 14:31:22.970,-0.063,-1.043,-0.48
4/28/2023 14:31:22.980,-0.047,-1.047,-0.449
4/28/2023 14:31:22.990,-0.094,-1.035,-0.414
4/28/2023 14:31:23.000,-0.168,-1.004,-0.379
4/28/2023 14:31:23.010,-0.211,-0.961,-0.336
4/28/2023 14:31:23.020,-0.25,-0.91,-0.293
4/28/2023 14:31:23.030,-0.277,-0.852,-0.273
4/28/2023 14:31:23.040,-0.273,-0.766,-0.242
4/28/2023 14:31:23.050,-0.277,-0.664,-0.215
4/28/2023 14:31:23.060,-0.238,-0.582,-0.16
4/28/2023 14:31:23.070,-0.168,-0.516,-0.117
4/28/2023 14:31:23.080,-0.098,-0.488,-0.156
4/28/2023 14:31:23.090,-0.02,-0.496,-0.137
4/28/2023 14:31:23.100,0.055,-0.527,-0.145
4/28/2023 14:31:23.110,0.09,-0.594,-0.164
4/28/2023 14:31:23.120,0.102,-0.668,-0.176
4/28/2023 14:31:23.130,0.086,-0.723,-0.188
4/28/2023 14:31:23.140,0.051,-0.766,-0.199
4/28/2023 14:31:23.150,0.016,-0.797,-0.203
4/28/2023 14:31:23.160,0.004,-0.801,-0.211
4/28/2023 14:31:23.170,-0.008,-0.789,-0.219
4/28/2023 14:31:23.180,-0.047,-0.777,-0.227
4/28/2023 14:31:23.190,-0.066,-0.77,-0.238
4/28/2023 14:31:23.200,-0.063,-0.773,-0.266
4/28/2023 14:31:23.210,-0.055,-0.82,-0.281
4/28/2023 14:31:23.220,-0.031,-0.898,-0.281
4/28/2023 14:31:23.230,0,-0.996,-0.281
4/28/2023 14:31:23.240,0.047,-1.074,-0.281
4/28/2023 14:31:23.250,0.09,-1.141,-0.281
4/28/2023 14:31:23.260,0.109,-1.191,-0.285
4/28/2023 14:31:23.270,0.141,-1.234,-0.313
4/28/2023 14:31:23.280,0.227,-1.234,-0.348
4/28/2023 14:31:23.290,0.34,-1.195,-0.363
4/28/2023 14:31:23.300,0.422,-1.137,-0.332
4/28/2023 14:31:23.310,0.41,-1.129,-0.285
4/28/2023 14:31:23.320,0.254,-1.195,-0.332
4/28/2023 14:31:23.330,0,-1.344,-0.52
4/28/2023 14:31:23.340,-0.156,-1.492,-0.637
4/28/2023 14:31:23.350,-0.152,-1.613,-0.676
4/28/2023 14:31:23.360,-0.086,-1.664,-0.645
4/28/2023 14:31:23.370,-0.047,-1.633,-0.531
4/28/2023 14:31:23.380,-0.082,-1.531,-0.422
4/28/2023 14:31:23.390,-0.23,-1.336,-0.461
4/28/2023 14:31:23.400,-0.422,-1.117,-0.461
4/28/2023 14:31:23.410,-0.523,-0.965,-0.398
4/28/2023 14:31:23.420,-0.496,-0.926,-0.371
4/28/2023 14:31:23.430,-0.402,-1.027,-0.313
4/28/2023 14:31:23.440,-0.324,-1.184,-0.242
4/28/2023 14:31:23.450,-0.289,-1.301,-0.242
4/28/2023 14:31:23.460,-0.246,-1.43,-0.27
4/28/2023 14:31:23.470,-0.156,-1.539,-0.281
4/28/2023 14:31:23.480,-0.051,-1.543,-0.281
4/28/2023 14:31:23.490,0.047,-1.441,-0.27
4/28/2023 14:31:23.500,0.105,-1.309,-0.242
4/28/2023 14:31:23.510,0.168,-1.176,-0.199
4/28/2023 14:31:23.520,0.199,-1.059,-0.168
4/28/2023 14:31:23.530,0.191,-0.934,-0.141
4/28/2023 14:31:23.540,0.148,-0.781,-0.125
4/28/2023 14:31:23.550,0.078,-0.664,-0.117
4/28/2023 14:31:23.560,0.063,-0.621,-0.07
4/28/2023 14:31:23.570,0.055,-0.582,-0.063
4/28/2023 14:31:23.580,0.039,-0.523,-0.078
4/28/2023 14:31:23.590,0.023,-0.484,-0.082
4/28/2023 14:31:23.600,0.008,-0.469,-0.074
4/28/2023 14:31:23.610,0.012,-0.465,-0.063
4/28/2023 14:31:23.620,0.016,-0.473,-0.059
4/28/2023 14:31:23.630,0.008,-0.492,-0.055
4/28/2023 14:31:23.640,0,-0.508,-0.043
4/28/2023 14:31:23.650,-0.016,-0.531,-0.035
4/28/2023 14:31:23.660,-0.027,-0.559,-0.027
4/28/2023 14:31:23.670,-0.043,-0.582,-0.004
4/28/2023 14:31:23.680,-0.063,-0.629,0.016
4/28/2023 14:31:23.690,-0.082,-0.664,0.027
4/28/2023 14:31:23.700,-0.102,-0.699,0.031
4/28/2023 14:31:23.710,-0.129,-0.738,0.035
4/28/2023 14:31:23.720,-0.152,-0.773,0.035
4/28/2023 14:31:23.730,-0.156,-0.789,0.012
4/28/2023 14:31:23.740,-0.148,-0.773,-0.023
4/28/2023 14:31:23.750,-0.117,-0.762,-0.074
4/28/2023 14:31:23.760,-0.055,-0.801,-0.133
4/28/2023 14:31:23.770,0.016,-0.922,-0.18
4/28/2023 14:31:23.780,0.066,-1.117,-0.156
4/28/2023 14:31:23.790,0.074,-1.324,-0.129
4/28/2023 14:31:23.800,0.059,-1.457,-0.078
4/28/2023 14:31:23.810,0.07,-1.535,0.008
4/28/2023 14:31:23.820,0.109,-1.578,0.074
4/28/2023 14:31:23.830,0.063,-1.535,0.004
4/28/2023 14:31:23.840,-0.113,-1.488,-0.164
4/28/2023 14:31:23.850,-0.301,-1.578,-0.289
4/28/2023 14:31:23.860,-0.34,-1.805,-0.285
4/28/2023 14:31:23.870,-0.137,-1.988,-0.262
4/28/2023 14:31:23.880,0.129,-1.938,-0.207
4/28/2023 14:31:23.890,0.086,-1.629,-0.285
4/28/2023 14:31:23.900,-0.102,-1.398,-0.449
4/28/2023 14:31:23.910,-0.219,-1.293,-0.496
4/28/2023 14:31:23.920,-0.262,-1.27,-0.414
4/28/2023 14:31:23.930,-0.348,-1.133,-0.379
4/28/2023 14:31:23.940,-0.414,-0.957,-0.375
4/28/2023 14:31:23.950,-0.422,-0.844,-0.422
4/28/2023 14:31:23.960,-0.398,-0.887,-0.453
4/28/2023 14:31:23.970,-0.352,-0.992,-0.504
4/28/2023 14:31:23.980,-0.313,-1.07,-0.531
4/28/2023 14:31:23.990,-0.285,-1.102,-0.492
4/28/2023 14:31:24.000,-0.289,-1.059,-0.438
4/28/2023 14:31:24.010,-0.285,-0.977,-0.363
4/28/2023 14:31:24.020,-0.285,-0.895,-0.305
4/28/2023 14:31:24.030,-0.266,-0.855,-0.27
4/28/2023 14:31:24.040,-0.219,-0.832,-0.254
4/28/2023 14:31:24.050,-0.164,-0.82,-0.242
4/28/2023 14:31:24.060,-0.121,-0.816,-0.184
4/28/2023 14:31:24.070,-0.137,-0.816,-0.156
4/28/2023 14:31:24.080,-0.16,-0.781,-0.184
4/28/2023 14:31:24.090,-0.184,-0.734,-0.215
4/28/2023 14:31:24.100,-0.188,-0.68,-0.242
4/28/2023 14:31:24.110,-0.152,-0.645,-0.25
4/28/2023 14:31:24.120,-0.066,-0.613,-0.234
4/28/2023 14:31:24.130,0.023,-0.598,-0.215
4/28/2023 14:31:24.140,0.094,-0.598,-0.203
4/28/2023 14:31:24.150,0.152,-0.609,-0.195
4/28/2023 14:31:24.160,0.215,-0.613,-0.184
4/28/2023 14:31:24.170,0.246,-0.629,-0.164
4/28/2023 14:31:24.180,0.262,-0.637,-0.16
4/28/2023 14:31:24.190,0.25,-0.629,-0.164
4/28/2023 14:31:24.200,0.234,-0.629,-0.172
4/28/2023 14:31:24.210,0.227,-0.637,-0.164
4/28/2023 14:31:24.220,0.215,-0.645,-0.148
4/28/2023 14:31:24.230,0.195,-0.664,-0.141
4/28/2023 14:31:24.240,0.156,-0.699,-0.141
4/28/2023 14:31:24.250,0.113,-0.734,-0.164
4/28/2023 14:31:24.260,0.082,-0.785,-0.199
4/28/2023 14:31:24.270,0.055,-0.859,-0.23
4/28/2023 14:31:24.280,0.047,-0.98,-0.234
4/28/2023 14:31:24.290,0.074,-1.125,-0.234
4/28/2023 14:31:24.300,0.137,-1.258,-0.27
4/28/2023 14:31:24.310,0.238,-1.344,-0.344
4/28/2023 14:31:24.320,0.375,-1.367,-0.391
4/28/2023 14:31:24.330,0.535,-1.367,-0.328
4/28/2023 14:31:24.340,0.629,-1.34,-0.227
4/28/2023 14:31:24.350,0.563,-1.277,-0.129
4/28/2023 14:31:24.360,0.363,-1.195,-0.094
4/28/2023 14:31:24.370,0.102,-1.145,-0.258
4/28/2023 14:31:24.380,-0.117,-1.277,-0.43
4/28/2023 14:31:24.390,-0.242,-1.559,-0.523
4/28/2023 14:31:24.400,-0.277,-1.715,-0.695
4/28/2023 14:31:24.410,-0.203,-1.711,-0.84
4/28/2023 14:31:24.420,-0.117,-1.609,-0.773
4/28/2023 14:31:24.430,-0.105,-1.402,-0.547
4/28/2023 14:31:24.440,-0.215,-1.051,-0.336
4/28/2023 14:31:24.450,-0.371,-0.613,-0.242
4/28/2023 14:31:24.460,-0.438,-0.43,-0.188
4/28/2023 14:31:24.470,-0.34,-0.738,-0.102
4/28/2023 14:31:24.480,-0.238,-1.141,-0.215
4/28/2023 14:31:24.490,-0.129,-1.414,-0.371
4/28/2023 14:31:24.500,-0.027,-1.605,-0.391
4/28/2023 14:31:24.510,-0.016,-1.691,-0.387
4/28/2023 14:31:24.520,-0.059,-1.656,-0.422
4/28/2023 14:31:24.530,-0.055,-1.582,-0.418
4/28/2023 14:31:24.540,0.063,-1.473,-0.402
4/28/2023 14:31:24.550,0.227,-1.344,-0.375
4/28/2023 14:31:24.560,0.375,-1.168,-0.332
4/28/2023 14:31:24.570,0.414,-0.941,-0.289
4/28/2023 14:31:24.580,0.352,-0.762,-0.25
4/28/2023 14:31:24.590,0.262,-0.648,-0.215
4/28/2023 14:31:24.600,0.188,-0.551,-0.199
4/28/2023 14:31:24.610,0.121,-0.461,-0.164
4/28/2023 14:31:24.620,0.082,-0.379,-0.109
4/28/2023 14:31:24.630,0.012,-0.344,-0.074
4/28/2023 14:31:24.640,-0.055,-0.348,-0.047
4/28/2023 14:31:24.650,-0.098,-0.371,-0.031
4/28/2023 14:31:24.660,-0.133,-0.402,-0.008
4/28/2023 14:31:24.670,-0.152,-0.438,0.023
4/28/2023 14:31:24.680,-0.18,-0.496,0.031
4/28/2023 14:31:24.690,-0.188,-0.566,0.047
4/28/2023 14:31:24.700,-0.176,-0.641,0.063
4/28/2023 14:31:24.710,-0.156,-0.699,0.082
4/28/2023 14:31:24.720,-0.152,-0.746,0.09
4/28/2023 14:31:24.730,-0.121,-0.793,0.098
4/28/2023 14:31:24.740,-0.09,-0.855,0.082
4/28/2023 14:31:24.750,-0.047,-0.895,0.016
4/28/2023 14:31:24.760,-0.004,-0.906,-0.039
4/28/2023 14:31:24.770,0.047,-0.938,-0.086
4/28/2023 14:31:24.780,0.07,-1.063,-0.09
4/28/2023 14:31:24.790,0.016,-1.23,-0.117
4/28/2023 14:31:24.800,-0.074,-1.352,-0.145
4/28/2023 14:31:24.810,-0.156,-1.379,-0.063
4/28/2023 14:31:24.820,-0.23,-1.32,0.086
4/28/2023 14:31:24.830,-0.219,-1.211,0.219
4/28/2023 14:31:24.840,-0.082,-1.133,0.316
4/28/2023 14:31:24.850,0.094,-1.145,0.328
4/28/2023 14:31:24.860,0.266,-1.238,0.273
4/28/2023 14:31:24.870,0.371,-1.305,0.078
4/28/2023 14:31:24.880,0.387,-1.391,-0.105
4/28/2023 14:31:24.890,0.305,-1.523,-0.102
4/28/2023 14:31:24.900,0.031,-1.488,-0.242
4/28/2023 14:31:24.910,-0.258,-1.41,-0.344
4/28/2023 14:31:24.920,-0.383,-1.266,-0.32
4/28/2023 14:31:24.930,-0.434,-1.16,-0.324
4/28/2023 14:31:24.940,-0.547,-1.207,-0.352
4/28/2023 14:31:24.950,-0.605,-1.266,-0.383
4/28/2023 14:31:24.960,-0.516,-1.188,-0.449
4/28/2023 14:31:24.970,-0.375,-1.059,-0.543
4/28/2023 14:31:24.980,-0.23,-1.07,-0.613
4/28/2023 14:31:24.990,-0.039,-1.195,-0.605
4/28/2023 14:31:25.000,0.145,-1.266,-0.598
4/28/2023 14:31:25.010,0.262,-1.266,-0.543
4/28/2023 14:31:25.020,0.254,-1.168,-0.465
4/28/2023 14:31:25.030,0.137,-1.004,-0.352
4/28/2023 14:31:25.040,0.004,-0.82,-0.266
4/28/2023 14:31:25.050,-0.133,-0.719,-0.16
4/28/2023 14:31:25.060,-0.246,-0.691,-0.102
4/28/2023 14:31:25.070,-0.348,-0.715,-0.09
4/28/2023 14:31:25.080,-0.422,-0.742,-0.129
4/28/2023 14:31:25.090,-0.438,-0.766,-0.145
4/28/2023 14:31:25.100,-0.422,-0.781,-0.148
4/28/2023 14:31:25.110,-0.418,-0.758,-0.176
4/28/2023 14:31:25.120,-0.41,-0.742,-0.203
4/28/2023 14:31:25.130,-0.367,-0.711,-0.234
4/28/2023 14:31:25.140,-0.293,-0.68,-0.258
4/28/2023 14:31:25.150,-0.168,-0.664,-0.258
4/28/2023 14:31:25.160,-0.031,-0.668,-0.258
4/28/2023 14:31:25.170,0.098,-0.672,-0.262
4/28/2023 14:31:25.180,0.195,-0.688,-0.254
4/28/2023 14:31:25.190,0.285,-0.695,-0.238
4/28/2023 14:31:25.200,0.328,-0.691,-0.234
4/28/2023 14:31:25.210,0.32,-0.684,-0.242
4/28/2023 14:31:25.220,0.289,-0.684,-0.242
4/28/2023 14:31:25.230,0.262,-0.688,-0.246
4/28/2023 14:31:25.240,0.25,-0.707,-0.234
4/28/2023 14:31:25.250,0.242,-0.727,-0.219
4/28/2023 14:31:25.260,0.227,-0.77,-0.211
4/28/2023 14:31:25.270,0.203,-0.844,-0.223
4/28/2023 14:31:25.280,0.164,-0.953,-0.25
4/28/2023 14:31:25.290,0.121,-1.055,-0.285
4/28/2023 14:31:25.300,0.094,-1.145,-0.309
4/28/2023 14:31:25.310,0.09,-1.215,-0.297
4/28/2023 14:31:25.320,0.129,-1.227,-0.281
4/28/2023 14:31:25.330,0.234,-1.164,-0.262
4/28/2023 14:31:25.340,0.383,-1.078,-0.227
4/28/2023 14:31:25.350,0.516,-1.023,-0.195
4/28/2023 14:31:25.360,0.566,-1.031,-0.203
4/28/2023 14:31:25.370,0.504,-1.098,-0.219
4/28/2023 14:31:25.380,0.305,-1.199,-0.184
4/28/2023 14:31:25.390,0.031,-1.273,-0.297
4/28/2023 14:31:25.400,-0.242,-1.352,-0.566
4/28/2023 14:31:25.410,-0.418,-1.535,-0.715
4/28/2023 14:31:25.420,-0.465,-1.719,-0.797
4/28/2023 14:31:25.430,-0.414,-1.762,-0.918
4/28/2023 14:31:25.440,-0.324,-1.637,-0.934
4/28/2023 14:31:25.450,-0.262,-1.348,-0.758
4/28/2023 14:31:25.460,-0.277,-0.926,-0.52
4/28/2023 14:31:25.470,-0.336,-0.535,-0.262
4/28/2023 14:31:25.480,-0.34,-0.398,-0.074
4/28/2023 14:31:25.490,-0.305,-0.613,-0.027
4/28/2023 14:31:25.500,-0.297,-0.98,-0.078
4/28/2023 14:31:25.510,-0.258,-1.254,-0.23
4/28/2023 14:31:25.520,-0.148,-1.391,-0.367
4/28/2023 14:31:25.530,-0.02,-1.477,-0.461
4/28/2023 14:31:25.540,0.031,-1.563,-0.555
4/28/2023 14:31:25.550,0.051,-1.629,-0.602
4/28/2023 14:31:25.560,0.105,-1.625,-0.586
4/28/2023 14:31:25.570,0.191,-1.5,-0.52
4/28/2023 14:31:25.580,0.258,-1.246,-0.422
4/28/2023 14:31:25.590,0.27,-0.973,-0.336
4/28/2023 14:31:25.600,0.242,-0.777,-0.246
4/28/2023 14:31:25.610,0.211,-0.68,-0.145
4/28/2023 14:31:25.620,0.168,-0.605,-0.137
4/28/2023 14:31:25.630,0.125,-0.523,-0.156
4/28/2023 14:31:25.640,0.113,-0.52,-0.117
4/28/2023 14:31:25.650,0.07,-0.539,-0.109
4/28/2023 14:31:25.660,-0.012,-0.547,-0.125
4/28/2023 14:31:25.670,-0.094,-0.566,-0.121
4/28/2023 14:31:25.680,-0.16,-0.586,-0.113
4/28/2023 14:31:25.690,-0.211,-0.586,-0.121
4/28/2023 14:31:25.700,-0.227,-0.594,-0.105
4/28/2023 14:31:25.710,-0.211,-0.617,-0.082
4/28/2023 14:31:25.720,-0.191,-0.621,-0.07
4/28/2023 14:31:25.730,-0.18,-0.621,-0.035
4/28/2023 14:31:25.740,-0.176,-0.625,-0.008
4/28/2023 14:31:25.750,-0.16,-0.625,-0.004
4/28/2023 14:31:25.760,-0.121,-0.609,0
4/28/2023 14:31:25.770,-0.09,-0.617,-0.02
4/28/2023 14:31:25.780,-0.07,-0.637,-0.086
4/28/2023 14:31:25.790,-0.051,-0.691,-0.16
4/28/2023 14:31:25.800,-0.051,-0.836,-0.188
4/28/2023 14:31:25.810,-0.102,-1.035,-0.188
4/28/2023 14:31:25.820,-0.188,-1.238,-0.219
4/28/2023 14:31:25.830,-0.254,-1.41,-0.211
4/28/2023 14:31:25.840,-0.266,-1.551,-0.109
4/28/2023 14:31:25.850,-0.199,-1.535,0.004
4/28/2023 14:31:25.860,-0.047,-1.406,0.109
4/28/2023 14:31:25.870,0.125,-1.324,0.172
4/28/2023 14:31:25.880,0.207,-1.301,0.055
4/28/2023 14:31:25.890,0.188,-1.352,-0.184
4/28/2023 14:31:25.900,0.246,-1.727,-0.254
4/28/2023 14:31:25.910,0.25,-1.871,-0.32
4/28/2023 14:31:25.920,-0.008,-1.73,-0.516
4/28/2023 14:31:25.930,-0.164,-1.492,-0.574
4/28/2023 14:31:25.940,-0.211,-1.324,-0.512
4/28/2023 14:31:25.950,-0.254,-1.297,-0.418
4/28/2023 14:31:25.960,-0.363,-1.254,-0.398
4/28/2023 14:31:25.970,-0.371,-1.156,-0.34
4/28/2023 14:31:25.980,-0.309,-1.016,-0.262
4/28/2023 14:31:25.990,-0.297,-0.855,-0.27
4/28/2023 14:31:26.000,-0.336,-0.789,-0.34
4/28/2023 14:31:26.010,-0.277,-0.844,-0.348
4/28/2023 14:31:26.020,-0.156,-0.949,-0.383
4/28/2023 14:31:26.030,-0.051,-1.063,-0.426
4/28/2023 14:31:26.040,0,-1.137,-0.438
4/28/2023 14:31:26.050,-0.02,-1.113,-0.406
4/28/2023 14:31:26.060,-0.051,-1.004,-0.344
4/28/2023 14:31:26.070,-0.113,-0.887,-0.281
4/28/2023 14:31:26.080,-0.195,-0.828,-0.203
4/28/2023 14:31:26.090,-0.242,-0.809,-0.125
4/28/2023 14:31:26.100,-0.266,-0.793,-0.082
4/28/2023 14:31:26.110,-0.305,-0.785,-0.09
4/28/2023 14:31:26.120,-0.34,-0.777,-0.133
4/28/2023 14:31:26.130,-0.328,-0.746,-0.168
4/28/2023 14:31:26.140,-0.297,-0.699,-0.184
4/28/2023 14:31:26.150,-0.242,-0.645,-0.207
4/28/2023 14:31:26.160,-0.188,-0.609,-0.215
4/28/2023 14:31:26.170,-0.113,-0.582,-0.223
4/28/2023 14:31:26.180,-0.004,-0.582,-0.223
4/28/2023 14:31:26.190,0.137,-0.59,-0.203
4/28/2023 14:31:26.200,0.238,-0.605,-0.184
4/28/2023 14:31:26.210,0.285,-0.617,-0.188
4/28/2023 14:31:26.220,0.301,-0.625,-0.188
4/28/2023 14:31:26.230,0.297,-0.629,-0.184
4/28/2023 14:31:26.240,0.273,-0.625,-0.195
4/28/2023 14:31:26.250,0.23,-0.621,-0.211
4/28/2023 14:31:26.260,0.16,-0.633,-0.223
4/28/2023 14:31:26.270,0.105,-0.672,-0.223
4/28/2023 14:31:26.280,0.086,-0.75,-0.211
4/28/2023 14:31:26.290,0.082,-0.883,-0.199
4/28/2023 14:31:26.300,0.066,-1.063,-0.203
4/28/2023 14:31:26.310,0.051,-1.215,-0.234
4/28/2023 14:31:26.320,0.051,-1.313,-0.266
4/28/2023 14:31:26.330,0.109,-1.348,-0.27
4/28/2023 14:31:26.340,0.227,-1.309,-0.238
4/28/2023 14:31:26.350,0.359,-1.211,-0.199
4/28/2023 14:31:26.360,0.504,-1.113,-0.199
4/28/2023 14:31:26.370,0.613,-1.074,-0.203
4/28/2023 14:31:26.380,0.641,-1.133,-0.203
4/28/2023 14:31:26.390,0.543,-1.23,-0.184
4/28/2023 14:31:26.400,0.352,-1.313,-0.172
4/28/2023 14:31:26.410,0.117,-1.391,-0.238
4/28/2023 14:31:26.420,-0.121,-1.5,-0.391
4/28/2023 14:31:26.430,-0.281,-1.602,-0.535
4/28/2023 14:31:26.440,-0.313,-1.664,-0.664
4/28/2023 14:31:26.450,-0.203,-1.637,-0.766
4/28/2023 14:31:26.460,-0.117,-1.563,-0.828
4/28/2023 14:31:26.470,-0.109,-1.387,-0.699
4/28/2023 14:31:26.480,-0.207,-1.078,-0.496
4/28/2023 14:31:26.490,-0.309,-0.684,-0.305
4/28/2023 14:31:26.500,-0.273,-0.414,-0.164
4/28/2023 14:31:26.510,-0.195,-0.535,-0.082
4/28/2023 14:31:26.520,-0.207,-0.867,-0.113
4/28/2023 14:31:26.530,-0.223,-1.133,-0.219
4/28/2023 14:31:26.540,-0.145,-1.27,-0.301
4/28/2023 14:31:26.550,-0.039,-1.391,-0.328
4/28/2023 14:31:26.560,-0.023,-1.539,-0.371
4/28/2023 14:31:26.570,-0.07,-1.629,-0.449
4/28/2023 14:31:26.580,-0.047,-1.602,-0.492
4/28/2023 14:31:26.590,0.051,-1.496,-0.48
4/28/2023 14:31:26.600,0.164,-1.277,-0.426
4/28/2023 14:31:26.610,0.219,-1.016,-0.348
4/28/2023 14:31:26.620,0.25,-0.805,-0.242
4/28/2023 14:31:26.630,0.227,-0.656,-0.18
4/28/2023 14:31:26.640,0.18,-0.539,-0.145
4/28/2023 14:31:26.650,0.172,-0.449,-0.113
4/28/2023 14:31:26.660,0.164,-0.41,-0.074
4/28/2023 14:31:26.670,0.121,-0.395,-0.055
4/28/2023 14:31:26.680,0.047,-0.398,-0.051
4/28/2023 14:31:26.690,-0.031,-0.43,-0.043
4/28/2023 14:31:26.700,-0.082,-0.469,-0.027
4/28/2023 14:31:26.710,-0.125,-0.52,-0.047
4/28/2023 14:31:26.720,-0.145,-0.586,-0.059
4/28/2023 14:31:26.730,-0.137,-0.664,-0.047
4/28/2023 14:31:26.740,-0.145,-0.719,-0.055
4/28/2023 14:31:26.750,-0.152,-0.762,-0.055
4/28/2023 14:31:26.760,-0.148,-0.82,-0.031
4/28/2023 14:31:26.770,-0.121,-0.875,-0.008
4/28/2023 14:31:26.780,-0.113,-0.906,-0.008
4/28/2023 14:31:26.790,-0.113,-0.898,-0.059
4/28/2023 14:31:26.800,-0.098,-0.832,-0.105
4/28/2023 14:31:26.810,-0.055,-0.793,-0.125
4/28/2023 14:31:26.820,-0.016,-0.813,-0.137
4/28/2023 14:31:26.830,-0.047,-0.965,-0.129
4/28/2023 14:31:26.840,-0.113,-1.141,-0.133
4/28/2023 14:31:26.850,-0.176,-1.273,-0.094
4/28/2023 14:31:26.860,-0.176,-1.387,0.008
4/28/2023 14:31:26.870,-0.125,-1.426,0.113
4/28/2023 14:31:26.880,-0.012,-1.406,0.184
4/28/2023 14:31:26.890,0.16,-1.414,0.18
4/28/2023 14:31:26.900,0.379,-1.531,0.145
4/28/2023 14:31:26.910,0.438,-1.488,-0.066
4/28/2023 14:31:26.920,0.328,-1.43,-0.25
4/28/2023 14:31:26.930,0.219,-1.414,-0.32
4/28/2023 14:31:26.940,0.02,-1.445,-0.332
4/28/2023 14:31:26.950,-0.227,-1.355,-0.406
4/28/2023 14:31:26.960,-0.441,-1.227,-0.418
4/28/2023 14:31:26.970,-0.465,-1.16,-0.395
4/28/2023 14:31:26.980,-0.48,-1.234,-0.359
4/28/2023 14:31:26.990,-0.578,-1.234,-0.363
4/28/2023 14:31:27.000,-0.602,-1.082,-0.406
4/28/2023 14:31:27.010,-0.469,-0.945,-0.461
4/28/2023 14:31:27.020,-0.277,-0.961,-0.523
4/28/2023 14:31:27.030,-0.117,-1.078,-0.566
4/28/2023 14:31:27.040,0,-1.145,-0.582
4/28/2023 14:31:27.050,0.109,-1.117,-0.523
4/28/2023 14:31:27.060,0.164,-1.027,-0.414
4/28/2023 14:31:27.070,0.148,-0.91,-0.316
4/28/2023 14:31:27.080,0.125,-0.781,-0.266
4/28/2023 14:31:27.090,0.047,-0.723,-0.188
4/28/2023 14:31:27.100,-0.074,-0.754,-0.129
4/28/2023 14:31:27.110,-0.191,-0.785,-0.145
4/28/2023 14:31:27.120,-0.285,-0.797,-0.164
4/28/2023 14:31:27.130,-0.332,-0.809,-0.168
4/28/2023 14:31:27.140,-0.352,-0.809,-0.152
4/28/2023 14:31:27.150,-0.332,-0.781,-0.156
4/28/2023 14:31:27.160,-0.313,-0.715,-0.172
4/28/2023 14:31:27.170,-0.313,-0.676,-0.172
4/28/2023 14:31:27.180,-0.293,-0.633,-0.191
4/28/2023 14:31:27.190,-0.246,-0.594,-0.207
4/28/2023 14:31:27.200,-0.164,-0.582,-0.23
4/28/2023 14:31:27.210,-0.07,-0.594,-0.242
4/28/2023 14:31:27.220,0.023,-0.621,-0.238
4/28/2023 14:31:27.230,0.094,-0.656,-0.238
4/28/2023 14:31:27.240,0.152,-0.695,-0.234
4/28/2023 14:31:27.250,0.199,-0.73,-0.23
4/28/2023 14:31:27.260,0.219,-0.777,-0.234
4/28/2023 14:31:27.270,0.219,-0.813,-0.234
4/28/2023 14:31:27.280,0.215,-0.836,-0.211
4/28/2023 14:31:27.290,0.199,-0.852,-0.188
4/28/2023 14:31:27.300,0.191,-0.875,-0.156
4/28/2023 14:31:27.310,0.168,-0.922,-0.137
4/28/2023 14:31:27.320,0.148,-0.996,-0.145
4/28/2023 14:31:27.330,0.121,-1.07,-0.172
4/28/2023 14:31:27.340,0.098,-1.133,-0.195
4/28/2023 14:31:27.350,0.105,-1.18,-0.195
4/28/2023 14:31:27.360,0.16,-1.184,-0.203
4/28/2023 14:31:27.370,0.254,-1.156,-0.23
4/28/2023 14:31:27.380,0.379,-1.141,-0.25
4/28/2023 14:31:27.390,0.5,-1.148,-0.25
4/28/2023 14:31:27.400,0.551,-1.191,-0.227
4/28/2023 14:31:27.410,0.473,-1.254,-0.176
4/28/2023 14:31:27.420,0.266,-1.301,-0.141
4/28/2023 14:31:27.430,-0.02,-1.336,-0.262
4/28/2023 14:31:27.440,-0.242,-1.406,-0.48
4/28/2023 14:31:27.450,-0.313,-1.566,-0.586
4/28/2023 14:31:27.460,-0.258,-1.719,-0.703
4/28/2023 14:31:27.470,-0.148,-1.699,-0.863
4/28/2023 14:31:27.480,-0.09,-1.551,-0.852
4/28/2023 14:31:27.490,-0.125,-1.258,-0.633
4/28/2023 14:31:27.500,-0.254,-0.844,-0.398
4/28/2023 14:31:27.510,-0.387,-0.48,-0.266
4/28/2023 14:31:27.520,-0.383,-0.445,-0.145
4/28/2023 14:31:27.530,-0.281,-0.762,-0.109
4/28/2023 14:31:27.540,-0.266,-1.098,-0.242
4/28/2023 14:31:27.550,-0.242,-1.32,-0.375
4/28/2023 14:31:27.560,-0.184,-1.465,-0.422
4/28/2023 14:31:27.570,-0.156,-1.551,-0.465
4/28/2023 14:31:27.580,-0.156,-1.578,-0.484
4/28/2023 14:31:27.590,-0.141,-1.547,-0.473
