------------ Data File Created By ActiGraph GT3X+ ActiLife v6.13.4 Firmware v1.7.2 date format M/d/yyyy at 100 Hz  Filter Normal -----------
Serial Number: TAS1H50200609
Start Time 15:32:00
Start Date 4/28/2023
Epoch Period (hh:mm:ss) 00:00:00
Download Time 15:47:15
Download Date 4/28/2023
Current Memory Address: 0
Current Battery Voltage: 4.19     Mode = 12
--------------------------------------------------
Timestamp,Accelerometer X,Accelerometer Y,Accelerometer Z
4/28/2023 15:32:00.000,-0.848,0.582,0.258
4/28/2023 15:32:00.010,-0.809,0.605,0.273
4/28/2023 15:32:00.020,-0.781,0.617,0.281
4/28/2023 15:32:00.030,-0.762,0.613,0.297
4/28/2023 15:32:00.040,-0.754,0.613,0.313
4/28/2023 15:32:00.050,-0.762,0.609,0.313
4/28/2023 15:32:00.060,-0.77,0.594,0.309
4/28/2023 15:32:00.070,-0.77,0.586,0.293
4/28/2023 15:32:00.080,-0.762,0.582,0.273
4/28/2023 15:32:00.090,-0.75,0.582,0.25
4/28/2023 15:32:00.100,-0.762,0.594,0.238
4/28/2023 15:32:00.110,-0.793,0.586,0.238
4/28/2023 15:32:00.120,-0.816,0.555,0.242
4/28/2023 15:32:00.130,-0.832,0.531,0.23
4/28/2023 15:32:00.140,-0.82,0.535,0.211
4/28/2023 15:32:00.150,-0.781,0.555,0.188
4/28/2023 15:32:00.160,-0.762,0.57,0.176
4/28/2023 15:32:00.170,-0.754,0.563,0.195
4/28/2023 15:32:00.180,-0.75,0.543,0.23
4/28/2023 15:32:00.190,-0.738,0.535,0.25
4/28/2023 15:32:00.200,-0.711,0.555,0.242
4/28/2023 15:32:00.210,-0.676,0.598,0.223
4/28/2023 15:32:00.220,-0.645,0.621,0.207
4/28/2023 15:32:00.230,-0.621,0.629,0.18
4/28/2023 15:32:00.240,-0.605,0.629,0.172
4/28/2023 15:32:00.250,-0.605,0.605,0.168
4/28/2023 15:32:00.260,-0.598,0.609,0.168
4/28/2023 15:32:00.270,-0.598,0.637,0.16
4/28/2023 15:32:00.280,-0.594,0.66,0.16
4/28/2023 15:32:00.290,-0.602,0.66,0.164
4/28/2023 15:32:00.300,-0.617,0.652,0.176
4/28/2023 15:32:00.310,-0.637,0.637,0.184
4/28/2023 15:32:00.320,-0.648,0.617,0.191
4/28/2023 15:32:00.330,-0.652,0.605,0.176
4/28/2023 15:32:00.340,-0.637,0.602,0.168
4/28/2023 15:32:00.350,-0.629,0.625,0.164
4/28/2023 15:32:00.360,-0.641,0.656,0.172
4/28/2023 15:32:00.370,-0.645,0.645,0.188
4/28/2023 15:32:00.380,-0.645,0.641,0.199
4/28/2023 15:32:00.390,-0.672,0.645,0.195
4/28/2023 15:32:00.400,-0.707,0.633,0.184
4/28/2023 15:32:00.410,-0.746,0.613,0.172
4/28/2023 15:32:00.420,-0.797,0.594,0.156
4/28/2023 15:32:00.430,-0.824,0.609,0.16
4/28/2023 15:32:00.440,-0.824,0.621,0.176
4/28/2023 15:32:00.450,-0.824,0.641,0.195
4/28/2023 15:32:00.460,-0.824,0.641,0.215
4/28/2023 15:32:00.470,-0.832,0.621,0.23
4/28/2023 15:32:00.480,-0.844,0.594,0.246
4/28/2023 15:32:00.490,-0.824,0.574,0.25
4/28/2023 15:32:00.500,-0.777,0.609,0.246
4/28/2023 15:32:00.510,-0.711,0.668,0.238
4/28/2023 15:32:00.520,-0.668,0.688,0.25
4/28/2023 15:32:00.530,-0.66,0.684,0.273
4/28/2023 15:32:00.540,-0.68,0.656,0.293
4/28/2023 15:32:00.550,-0.723,0.641,0.313
4/28/2023 15:32:00.560,-0.766,0.617,0.313
4/28/2023 15:32:00.570,-0.793,0.602,0.305
4/28/2023 15:32:00.580,-0.813,0.609,0.273
4/28/2023 15:32:00.590,-0.816,0.605,0.246
4/28/2023 15:32:00.600,-0.813,0.582,0.215
4/28/2023 15:32:00.610,-0.82,0.574,0.188
4/28/2023 15:32:00.620,-0.828,0.586,0.176
4/28/2023 15:32:00.630,-0.82,0.574,0.176
4/28/2023 15:32:00.640,-0.809,0.574,0.184
4/28/2023 15:32:00.650,-0.793,0.59,0.195
4/28/2023 15:32:00.660,-0.785,0.59,0.215
4/28/2023 15:32:00.670,-0.773,0.598,0.238
4/28/2023 15:32:00.680,-0.801,0.594,0.266
4/28/2023 15:32:00.690,-0.848,0.57,0.285
4/28/2023 15:32:00.700,-0.891,0.52,0.27
4/28/2023 15:32:00.710,-0.918,0.48,0.25
4/28/2023 15:32:00.720,-0.902,0.469,0.207
4/28/2023 15:32:00.730,-0.859,0.496,0.152
4/28/2023 15:32:00.740,-0.801,0.543,0.109
4/28/2023 15:32:00.750,-0.746,0.57,0.094
4/28/2023 15:32:00.760,-0.711,0.59,0.109
4/28/2023 15:32:00.770,-0.707,0.586,0.164
4/28/2023 15:32:00.780,-0.73,0.566,0.219
4/28/2023 15:32:00.790,-0.762,0.531,0.27
4/28/2023 15:32:00.800,-0.785,0.5,0.289
4/28/2023 15:32:00.810,-0.797,0.492,0.27
4/28/2023 15:32:00.820,-0.773,0.504,0.219
4/28/2023 15:32:00.830,-0.73,0.527,0.148
4/28/2023 15:32:00.840,-0.719,0.563,0.105
4/28/2023 15:32:00.850,-0.727,0.531,0.066
4/28/2023 15:32:00.860,-0.738,0.516,0.031
4/28/2023 15:32:00.870,-0.762,0.527,0.023
4/28/2023 15:32:00.880,-0.777,0.539,0.031
4/28/2023 15:32:00.890,-0.785,0.535,0.047
4/28/2023 15:32:00.900,-0.785,0.547,0.07
4/28/2023 15:32:00.910,-0.754,0.578,0.105
4/28/2023 15:32:00.920,-0.715,0.602,0.137
4/28/2023 15:32:00.930,-0.688,0.609,0.168
4/28/2023 15:32:00.940,-0.664,0.594,0.207
4/28/2023 15:32:00.950,-0.645,0.617,0.227
4/28/2023 15:32:00.960,-0.652,0.641,0.246
4/28/2023 15:32:00.970,-0.688,0.645,0.266
4/28/2023 15:32:00.980,-0.695,0.645,0.289
4/28/2023 15:32:00.990,-0.707,0.688,0.297
4/28/2023 15:32:01.000,-0.715,0.703,0.297
4/28/2023 15:32:01.010,-0.711,0.68,0.289
4/28/2023 15:32:01.020,-0.73,0.68,0.266
4/28/2023 15:32:01.030,-0.719,0.688,0.266
4/28/2023 15:32:01.040,-0.715,0.691,0.27
4/28/2023 15:32:01.050,-0.715,0.695,0.281
4/28/2023 15:32:01.060,-0.73,0.688,0.289
4/28/2023 15:32:01.070,-0.75,0.68,0.293
4/28/2023 15:32:01.080,-0.758,0.668,0.266
4/28/2023 15:32:01.090,-0.77,0.652,0.234
4/28/2023 15:32:01.100,-0.762,0.652,0.203
4/28/2023 15:32:01.110,-0.754,0.641,0.18
4/28/2023 15:32:01.120,-0.766,0.625,0.168
4/28/2023 15:32:01.130,-0.801,0.609,0.156
4/28/2023 15:32:01.140,-0.836,0.605,0.145
4/28/2023 15:32:01.150,-0.867,0.563,0.094
4/28/2023 15:32:01.160,-0.844,0.551,0.074
4/28/2023 15:32:01.170,-0.77,0.57,0.035
4/28/2023 15:32:01.180,-0.742,0.617,0.008
4/28/2023 15:32:01.190,-0.719,0.695,-0.066
4/28/2023 15:32:01.200,-0.688,0.77,-0.109
4/28/2023 15:32:01.210,-0.75,0.801,-0.09
4/28/2023 15:32:01.220,-0.824,0.793,-0.051
4/28/2023 15:32:01.230,-0.832,0.688,0.008
4/28/2023 15:32:01.240,-0.84,0.438,0.117
4/28/2023 15:32:01.250,-0.848,0.301,0.203
4/28/2023 15:32:01.260,-0.777,0.121,0.176
4/28/2023 15:32:01.270,-0.75,-0.094,0.195
4/28/2023 15:32:01.280,-0.746,-0.184,0.234
4/28/2023 15:32:01.290,-0.742,-0.219,0.223
4/28/2023 15:32:01.300,-0.73,-0.172,0.184
4/28/2023 15:32:01.310,-0.719,-0.035,0.156
4/28/2023 15:32:01.320,-0.715,0.082,0.156
4/28/2023 15:32:01.330,-0.738,0.133,0.16
4/28/2023 15:32:01.340,-0.809,0.137,0.145
4/28/2023 15:32:01.350,-0.852,0.141,0.137
4/28/2023 15:32:01.360,-0.848,0.172,0.148
4/28/2023 15:32:01.370,-0.813,0.184,0.184
4/28/2023 15:32:01.380,-0.793,0.176,0.18
4/28/2023 15:32:01.390,-0.875,0.406,0.152
4/28/2023 15:32:01.400,-1.094,1.602,-0.012
4/28/2023 15:32:01.410,-1.129,1.879,0.305
4/28/2023 15:32:01.420,-1.105,0.703,0.656
4/28/2023 15:32:01.430,-0.93,-0.051,0.73
4/28/2023 15:32:01.440,-0.891,0.043,0.738
4/28/2023 15:32:01.450,-0.965,0.199,0.645
4/28/2023 15:32:01.460,-1.023,0.387,0.41
4/28/2023 15:32:01.470,-0.859,0.293,0.27
4/28/2023 15:32:01.480,-0.766,0.406,0.078
4/28/2023 15:32:01.490,-0.883,0.578,0.012
4/28/2023 15:32:01.500,-0.965,0.582,0.121
4/28/2023 15:32:01.510,-1.043,0.492,0.238
4/28/2023 15:32:01.520,-1.133,0.469,0.25
4/28/2023 15:32:01.530,-1.16,0.41,0.148
4/28/2023 15:32:01.540,-1.148,0.352,0.012
4/28/2023 15:32:01.550,-1.137,0.352,-0.039
4/28/2023 15:32:01.560,-1.086,0.344,0.008
4/28/2023 15:32:01.570,-0.98,0.34,0.07
4/28/2023 15:32:01.580,-0.902,0.438,0.121
4/28/2023 15:32:01.590,-0.816,0.523,0.207
4/28/2023 15:32:01.600,-0.758,0.539,0.27
4/28/2023 15:32:01.610,-0.77,0.582,0.246
4/28/2023 15:32:01.620,-0.816,0.566,0.16
4/28/2023 15:32:01.630,-0.891,0.492,0.059
4/28/2023 15:32:01.640,-0.961,0.414,-0.055
4/28/2023 15:32:01.650,-1,0.383,-0.121
4/28/2023 15:32:01.660,-1.035,0.383,-0.141
4/28/2023 15:32:01.670,-1.035,0.332,-0.117
4/28/2023 15:32:01.680,-1.031,0.277,-0.055
4/28/2023 15:32:01.690,-1.055,0.27,0.012
4/28/2023 15:32:01.700,-1.047,0.246,0
4/28/2023 15:32:01.710,-1.012,0.23,-0.051
4/28/2023 15:32:01.720,-1.012,0.277,-0.09
4/28/2023 15:32:01.730,-1.023,0.258,-0.105
4/28/2023 15:32:01.740,-1.027,0.18,-0.102
4/28/2023 15:32:01.750,-1.066,0.121,-0.098
4/28/2023 15:32:01.760,-1.09,0.082,-0.047
4/28/2023 15:32:01.770,-1.109,0.148,-0.004
4/28/2023 15:32:01.780,-1.145,0.273,0.055
4/28/2023 15:32:01.790,-1.18,0.332,0.129
4/28/2023 15:32:01.800,-1.219,0.313,0.156
4/28/2023 15:32:01.810,-1.242,0.289,0.16
4/28/2023 15:32:01.820,-1.234,0.27,0.121
4/28/2023 15:32:01.830,-1.215,0.25,0.086
4/28/2023 15:32:01.840,-1.207,0.23,0.031
4/28/2023 15:32:01.850,-1.191,0.246,-0.023
4/28/2023 15:32:01.860,-1.215,0.285,-0.027
4/28/2023 15:32:01.870,-1.254,0.277,0
4/28/2023 15:32:01.880,-1.266,0.207,0.043
4/28/2023 15:32:01.890,-1.254,0.141,0.066
4/28/2023 15:32:01.900,-1.27,0.086,0.082
4/28/2023 15:32:01.910,-1.273,0.047,0.063
4/28/2023 15:32:01.920,-1.336,0.051,0.047
4/28/2023 15:32:01.930,-1.461,-0.012,0
4/28/2023 15:32:01.940,-1.59,-0.148,-0.074
4/28/2023 15:32:01.950,-1.707,-0.328,-0.164
4/28/2023 15:32:01.960,-1.781,-0.523,-0.289
4/28/2023 15:32:01.970,-1.797,-0.707,-0.438
4/28/2023 15:32:01.980,-1.785,-0.863,-0.574
4/28/2023 15:32:01.990,-1.684,-0.922,-0.684
4/28/2023 15:32:02.000,-1.617,-0.688,-0.645
4/28/2023 15:32:02.010,-1.793,-0.113,-0.453
4/28/2023 15:32:02.020,-2.027,0.523,-0.289
4/28/2023 15:32:02.030,-2.031,0.695,-0.406
4/28/2023 15:32:02.040,-1.918,0.293,-0.504
4/28/2023 15:32:02.050,-1.941,0.297,-0.477
4/28/2023 15:32:02.060,-1.926,0.43,-0.59
4/28/2023 15:32:02.070,-1.543,0.316,-0.59
4/28/2023 15:32:02.080,-1.039,-0.184,-0.148
4/28/2023 15:32:02.090,-1.402,-0.246,-0.141
4/28/2023 15:32:02.100,-0.93,0.129,-0.227
4/28/2023 15:32:02.110,-0.719,-0.152,-0.281
4/28/2023 15:32:02.120,-0.602,-0.375,-0.344
4/28/2023 15:32:02.130,-0.469,-0.434,-0.316
4/28/2023 15:32:02.140,-0.387,-0.441,-0.23
4/28/2023 15:32:02.150,-0.316,-0.371,-0.172
4/28/2023 15:32:02.160,-0.25,-0.27,-0.16
4/28/2023 15:32:02.170,-0.219,-0.188,-0.172
4/28/2023 15:32:02.180,-0.23,-0.176,-0.164
4/28/2023 15:32:02.190,-0.273,-0.25,-0.141
4/28/2023 15:32:02.200,-0.289,-0.32,-0.094
4/28/2023 15:32:02.210,-0.301,-0.297,-0.078
4/28/2023 15:32:02.220,-0.332,-0.211,-0.102
4/28/2023 15:32:02.230,-0.383,-0.16,-0.137
4/28/2023 15:32:02.240,-0.418,-0.133,-0.172
4/28/2023 15:32:02.250,-0.461,-0.102,-0.195
4/28/2023 15:32:02.260,-0.512,-0.09,-0.184
4/28/2023 15:32:02.270,-0.598,-0.078,-0.168
4/28/2023 15:32:02.280,-0.691,-0.047,-0.145
4/28/2023 15:32:02.290,-0.797,0.012,-0.117
4/28/2023 15:32:02.300,-0.891,0.105,-0.105
4/28/2023 15:32:02.310,-0.988,0.238,-0.133
4/28/2023 15:32:02.320,-1.094,0.398,-0.188
4/28/2023 15:32:02.330,-1.172,0.492,-0.242
4/28/2023 15:32:02.340,-1.293,0.617,-0.316
4/28/2023 15:32:02.350,-1.461,0.836,-0.414
4/28/2023 15:32:02.360,-1.648,1.109,-0.465
4/28/2023 15:32:02.370,-1.816,1.5,-0.461
4/28/2023 15:32:02.380,-1.941,1.98,-0.496
4/28/2023 15:32:02.390,-1.926,2.43,-0.488
4/28/2023 15:32:02.400,-1.816,2.59,-0.371
4/28/2023 15:32:02.410,-1.699,2.5,-0.152
4/28/2023 15:32:02.420,-1.574,2.375,0.082
4/28/2023 15:32:02.430,-1.43,2.328,0.246
4/28/2023 15:32:02.440,-1.34,2.285,0.355
4/28/2023 15:32:02.450,-1.293,2.16,0.426
4/28/2023 15:32:02.460,-1.523,1.73,0.395
4/28/2023 15:32:02.470,-1.152,1.379,0.43
4/28/2023 15:32:02.480,-1.156,-0.117,0.156
4/28/2023 15:32:02.490,-1.805,-2.434,-0.004
4/28/2023 15:32:02.500,-2.391,-1.875,0.566
4/28/2023 15:32:02.510,-2.277,0.121,0.434
4/28/2023 15:32:02.520,-1.793,1.41,-0.078
4/28/2023 15:32:02.530,-1.375,0.887,-0.336
4/28/2023 15:32:02.540,-0.758,0.184,-0.063
4/28/2023 15:32:02.550,-0.535,0.09,-0.047
4/28/2023 15:32:02.560,-0.797,0.43,-0.348
4/28/2023 15:32:02.570,-1.215,0.859,-0.594
4/28/2023 15:32:02.580,-1.172,0.84,-0.438
4/28/2023 15:32:02.590,-1.023,0.543,-0.176
4/28/2023 15:32:02.600,-1.027,0.379,-0.102
4/28/2023 15:32:02.610,-0.969,0.266,-0.105
4/28/2023 15:32:02.620,-0.949,0.215,0.027
4/28/2023 15:32:02.630,-0.945,0.219,0.152
4/28/2023 15:32:02.640,-0.961,0.16,0.125
4/28/2023 15:32:02.650,-0.996,0.066,0.023
4/28/2023 15:32:02.660,-1.035,0,-0.09
4/28/2023 15:32:02.670,-1.059,-0.012,-0.191
4/28/2023 15:32:02.680,-1.063,-0.035,-0.258
4/28/2023 15:32:02.690,-1.086,-0.047,-0.316
4/28/2023 15:32:02.700,-1.125,-0.023,-0.293
4/28/2023 15:32:02.710,-1.137,-0.031,-0.203
4/28/2023 15:32:02.720,-1.117,-0.109,-0.145
4/28/2023 15:32:02.730,-1.094,-0.199,-0.168
4/28/2023 15:32:02.740,-1.09,-0.172,-0.203
4/28/2023 15:32:02.750,-1.098,-0.059,-0.227
4/28/2023 15:32:02.760,-1.094,0.023,-0.246
4/28/2023 15:32:02.770,-1.086,0.02,-0.262
4/28/2023 15:32:02.780,-1.09,-0.031,-0.273
4/28/2023 15:32:02.790,-1.109,-0.043,-0.258
4/28/2023 15:32:02.800,-1.172,-0.012,-0.207
4/28/2023 15:32:02.810,-1.23,-0.02,-0.184
4/28/2023 15:32:02.820,-1.234,-0.113,-0.215
4/28/2023 15:32:02.830,-1.238,-0.141,-0.281
4/28/2023 15:32:02.840,-1.227,-0.137,-0.316
4/28/2023 15:32:02.850,-1.25,-0.121,-0.297
4/28/2023 15:32:02.860,-1.25,-0.098,-0.25
4/28/2023 15:32:02.870,-1.23,-0.137,-0.211
4/28/2023 15:32:02.880,-1.262,-0.211,-0.145
4/28/2023 15:32:02.890,-1.34,-0.285,-0.086
4/28/2023 15:32:02.900,-1.445,-0.348,-0.035
4/28/2023 15:32:02.910,-1.543,-0.398,0.004
4/28/2023 15:32:02.920,-1.641,-0.445,0.047
4/28/2023 15:32:02.930,-1.73,-0.492,0.066
4/28/2023 15:32:02.940,-1.82,-0.57,0.051
4/28/2023 15:32:02.950,-1.918,-0.711,-0.02
4/28/2023 15:32:02.960,-1.961,-0.898,-0.105
4/28/2023 15:32:02.970,-1.973,-1.082,-0.219
4/28/2023 15:32:02.980,-2.086,-1.301,-0.352
4/28/2023 15:32:02.990,-2.223,-1.402,-0.668
4/28/2023 15:32:03.000,-2.367,-1.141,-0.957
4/28/2023 15:32:03.010,-2.492,-0.363,-1.094
4/28/2023 15:32:03.020,-2.512,0.316,-0.965
4/28/2023 15:32:03.030,-2.16,0.309,-0.965
4/28/2023 15:32:03.040,-2.09,-0.086,-0.871
4/28/2023 15:32:03.050,-1.895,-0.48,-0.945
4/28/2023 15:32:03.060,-1.152,-0.781,-1.004
4/28/2023 15:32:03.070,-0.598,-0.852,-0.633
4/28/2023 15:32:03.080,-1.262,0.133,-0.445
4/28/2023 15:32:03.090,-0.934,0.648,-0.34
4/28/2023 15:32:03.100,-0.711,-0.16,-0.328
4/28/2023 15:32:03.110,-0.406,-0.684,-0.383
4/28/2023 15:32:03.120,-0.164,-0.824,-0.297
4/28/2023 15:32:03.130,-0.055,-0.762,-0.125
4/28/2023 15:32:03.140,-0.059,-0.645,-0.023
4/28/2023 15:32:03.150,-0.121,-0.504,0.004
4/28/2023 15:32:03.160,-0.164,-0.391,-0.035
4/28/2023 15:32:03.170,-0.215,-0.352,-0.059
4/28/2023 15:32:03.180,-0.309,-0.375,-0.059
4/28/2023 15:32:03.190,-0.426,-0.41,-0.059
4/28/2023 15:32:03.200,-0.516,-0.418,-0.031
4/28/2023 15:32:03.210,-0.574,-0.348,-0.016
4/28/2023 15:32:03.220,-0.625,-0.246,-0.039
4/28/2023 15:32:03.230,-0.695,-0.191,-0.066
4/28/2023 15:32:03.240,-0.789,-0.203,-0.105
4/28/2023 15:32:03.250,-0.91,-0.234,-0.117
4/28/2023 15:32:03.260,-1.063,-0.234,-0.098
4/28/2023 15:32:03.270,-1.27,-0.172,-0.055
4/28/2023 15:32:03.280,-1.527,-0.125,-0.031
4/28/2023 15:32:03.290,-1.836,-0.094,-0.039
4/28/2023 15:32:03.300,-2.133,0.051,-0.094
4/28/2023 15:32:03.310,-2.359,0.359,-0.199
4/28/2023 15:32:03.320,-2.656,0.707,-0.316
4/28/2023 15:32:03.330,-2.906,1.035,-0.434
4/28/2023 15:32:03.340,-2.84,1.184,-0.535
4/28/2023 15:32:03.350,-2.543,1.406,-0.629
4/28/2023 15:32:03.360,-2.391,2.141,-0.832
4/28/2023 15:32:03.370,-2.113,2.949,-0.563
4/28/2023 15:32:03.380,-1.879,3.188,-0.016
4/28/2023 15:32:03.390,-1.906,2.934,0.176
4/28/2023 15:32:03.400,-1.93,2.777,0.207
4/28/2023 15:32:03.410,-1.641,2.48,0.262
4/28/2023 15:32:03.420,-1.512,2.18,0.297
4/28/2023 15:32:03.430,-1.539,2.02,0.191
4/28/2023 15:32:03.440,-1.398,1.25,-0.254
4/28/2023 15:32:03.450,-1.527,-1.707,-0.539
4/28/2023 15:32:03.460,-2.008,-3.504,0.926
4/28/2023 15:32:03.470,-2.047,-1.238,1.559
4/28/2023 15:32:03.480,-2.051,1.008,0.789
4/28/2023 15:32:03.490,-1.801,1.66,-0.133
4/28/2023 15:32:03.500,-1.27,1.387,-0.512
4/28/2023 15:32:03.510,-0.82,0.797,-0.316
4/28/2023 15:32:03.520,-0.809,0.406,-0.367
4/28/2023 15:32:03.530,-0.949,0.574,-0.719
4/28/2023 15:32:03.540,-1.238,1.188,-0.766
4/28/2023 15:32:03.550,-1.172,1.191,-0.496
4/28/2023 15:32:03.560,-1.023,0.746,-0.258
4/28/2023 15:32:03.570,-1.055,0.535,-0.203
4/28/2023 15:32:03.580,-0.973,0.348,-0.148
4/28/2023 15:32:03.590,-0.922,0.223,0.098
4/28/2023 15:32:03.600,-0.941,0.203,0.215
4/28/2023 15:32:03.610,-0.914,0.133,0.152
4/28/2023 15:32:03.620,-0.973,0.023,0.039
4/28/2023 15:32:03.630,-1.055,-0.055,0.016
4/28/2023 15:32:03.640,-1.074,-0.129,-0.039
4/28/2023 15:32:03.650,-1.09,-0.152,-0.23
4/28/2023 15:32:03.660,-1.094,-0.082,-0.281
4/28/2023 15:32:03.670,-1.086,-0.012,-0.289
4/28/2023 15:32:03.680,-1.113,0.031,-0.289
4/28/2023 15:32:03.690,-1.133,0.004,-0.238
4/28/2023 15:32:03.700,-1.141,-0.023,-0.211
4/28/2023 15:32:03.710,-1.176,-0.051,-0.219
4/28/2023 15:32:03.720,-1.191,-0.07,-0.246
4/28/2023 15:32:03.730,-1.172,-0.145,-0.289
4/28/2023 15:32:03.740,-1.121,-0.238,-0.344
4/28/2023 15:32:03.750,-1.063,-0.309,-0.43
4/28/2023 15:32:03.760,-1.031,-0.258,-0.527
4/28/2023 15:32:03.770,-1.043,-0.172,-0.543
4/28/2023 15:32:03.780,-1.082,-0.094,-0.512
4/28/2023 15:32:03.790,-1.145,-0.023,-0.43
4/28/2023 15:32:03.800,-1.238,-0.008,-0.355
4/28/2023 15:32:03.810,-1.305,-0.012,-0.254
4/28/2023 15:32:03.820,-1.352,-0.082,-0.145
4/28/2023 15:32:03.830,-1.328,-0.242,-0.055
4/28/2023 15:32:03.840,-1.313,-0.383,-0.035
4/28/2023 15:32:03.850,-1.348,-0.449,-0.063
4/28/2023 15:32:03.860,-1.41,-0.453,-0.074
4/28/2023 15:32:03.870,-1.523,-0.402,-0.047
4/28/2023 15:32:03.880,-1.629,-0.352,0.012
4/28/2023 15:32:03.890,-1.703,-0.359,-0.027
4/28/2023 15:32:03.900,-1.793,-0.469,-0.164
4/28/2023 15:32:03.910,-1.887,-0.637,-0.336
4/28/2023 15:32:03.920,-1.957,-0.824,-0.441
4/28/2023 15:32:03.930,-2.074,-0.977,-0.508
4/28/2023 15:32:03.940,-2.363,-1.406,-0.633
4/28/2023 15:32:03.950,-2.395,-1.617,-0.609
4/28/2023 15:32:03.960,-2.496,-0.898,-0.543
4/28/2023 15:32:03.970,-2.797,0.121,-0.742
4/28/2023 15:32:03.980,-2.457,0.465,-0.816
4/28/2023 15:32:03.990,-2.211,0.344,-0.852
4/28/2023 15:32:04.000,-2.16,-0.125,-0.816
4/28/2023 15:32:04.010,-1.613,-0.59,-0.984
4/28/2023 15:32:04.020,-0.559,-0.773,-0.855
4/28/2023 15:32:04.030,-1.426,-0.102,-0.484
4/28/2023 15:32:04.040,-1.266,0.934,-0.355
4/28/2023 15:32:04.050,-0.891,0.543,-0.273
4/28/2023 15:32:04.060,-0.656,-0.262,-0.176
4/28/2023 15:32:04.070,-0.43,-0.645,-0.137
4/28/2023 15:32:04.080,-0.18,-0.695,0.059
4/28/2023 15:32:04.090,-0.023,-0.652,0.223
4/28/2023 15:32:04.100,-0.023,-0.598,0.27
4/28/2023 15:32:04.110,-0.07,-0.523,0.258
4/28/2023 15:32:04.120,-0.105,-0.438,0.227
4/28/2023 15:32:04.130,-0.18,-0.367,0.195
4/28/2023 15:32:04.140,-0.242,-0.371,0.152
4/28/2023 15:32:04.150,-0.266,-0.422,0.148
4/28/2023 15:32:04.160,-0.285,-0.43,0.176
4/28/2023 15:32:04.170,-0.309,-0.398,0.152
4/28/2023 15:32:04.180,-0.348,-0.336,0.078
4/28/2023 15:32:04.190,-0.383,-0.254,0.023
4/28/2023 15:32:04.200,-0.445,-0.191,0.004
4/28/2023 15:32:04.210,-0.551,-0.152,-0.008
4/28/2023 15:32:04.220,-0.68,-0.145,0.027
4/28/2023 15:32:04.230,-0.84,-0.16,0.074
4/28/2023 15:32:04.240,-1.023,-0.172,0.113
4/28/2023 15:32:04.250,-1.238,-0.172,0.125
4/28/2023 15:32:04.260,-1.504,-0.176,0.125
4/28/2023 15:32:04.270,-1.816,-0.102,0.082
4/28/2023 15:32:04.280,-2.098,0.121,-0.012
4/28/2023 15:32:04.290,-2.32,0.438,-0.109
4/28/2023 15:32:04.300,-2.629,0.691,-0.223
4/28/2023 15:32:04.310,-2.992,0.898,-0.352
4/28/2023 15:32:04.320,-3.008,0.973,-0.449
4/28/2023 15:32:04.330,-2.68,1.098,-0.512
4/28/2023 15:32:04.340,-2.516,1.91,-0.84
4/28/2023 15:32:04.350,-2.273,2.957,-0.617
4/28/2023 15:32:04.360,-1.938,3.367,-0.152
4/28/2023 15:32:04.370,-1.957,3.164,-0.035
4/28/2023 15:32:04.380,-1.906,2.863,0.055
4/28/2023 15:32:04.390,-1.676,2.355,0.121
4/28/2023 15:32:04.400,-1.707,1.855,0.016
4/28/2023 15:32:04.410,-1.305,1.051,-0.637
4/28/2023 15:32:04.420,-1.445,-2.367,-1.152
4/28/2023 15:32:04.430,-2.039,-3.375,0.949
4/28/2023 15:32:04.440,-2.148,-0.738,1.449
4/28/2023 15:32:04.450,-2.336,1.195,0.824
4/28/2023 15:32:04.460,-2.188,1.555,0.066
4/28/2023 15:32:04.470,-1.512,1.129,-0.391
4/28/2023 15:32:04.480,-0.762,0.648,-0.348
4/28/2023 15:32:04.490,-0.617,0.309,-0.418
4/28/2023 15:32:04.500,-0.891,0.48,-0.715
4/28/2023 15:32:04.510,-1.199,1.07,-0.625
4/28/2023 15:32:04.520,-1.191,1.117,-0.438
4/28/2023 15:32:04.530,-1.055,0.742,-0.316
4/28/2023 15:32:04.540,-1.055,0.719,-0.293
4/28/2023 15:32:04.550,-1.02,0.605,-0.215
4/28/2023 15:32:04.560,-0.906,0.34,0.191
4/28/2023 15:32:04.570,-0.91,0.16,0.344
4/28/2023 15:32:04.580,-0.914,-0.008,0.258
4/28/2023 15:32:04.590,-0.988,-0.141,0.055
4/28/2023 15:32:04.600,-1.094,-0.199,-0.074
4/28/2023 15:32:04.610,-1.086,-0.195,-0.109
4/28/2023 15:32:04.620,-1.031,-0.172,-0.305
4/28/2023 15:32:04.630,-1.027,-0.145,-0.426
4/28/2023 15:32:04.640,-1.039,-0.121,-0.398
4/28/2023 15:32:04.650,-1.078,-0.074,-0.355
4/28/2023 15:32:04.660,-1.098,-0.094,-0.289
4/28/2023 15:32:04.670,-1.105,-0.188,-0.254
4/28/2023 15:32:04.680,-1.133,-0.215,-0.273
4/28/2023 15:32:04.690,-1.121,-0.199,-0.301
4/28/2023 15:32:04.700,-1.07,-0.219,-0.352
4/28/2023 15:32:04.710,-1.043,-0.238,-0.387
4/28/2023 15:32:04.720,-1.027,-0.18,-0.406
4/28/2023 15:32:04.730,-1.039,-0.09,-0.41
4/28/2023 15:32:04.740,-1.059,-0.012,-0.387
4/28/2023 15:32:04.750,-1.09,0.035,-0.383
4/28/2023 15:32:04.760,-1.133,0.035,-0.359
4/28/2023 15:32:04.770,-1.207,0.039,-0.328
4/28/2023 15:32:04.780,-1.273,0.008,-0.258
4/28/2023 15:32:04.790,-1.301,-0.109,-0.188
4/28/2023 15:32:04.800,-1.297,-0.238,-0.121
4/28/2023 15:32:04.810,-1.324,-0.316,-0.113
4/28/2023 15:32:04.820,-1.387,-0.375,-0.164
4/28/2023 15:32:04.830,-1.465,-0.375,-0.203
4/28/2023 15:32:04.840,-1.527,-0.332,-0.195
4/28/2023 15:32:04.850,-1.578,-0.273,-0.129
4/28/2023 15:32:04.860,-1.621,-0.262,-0.066
4/28/2023 15:32:04.870,-1.676,-0.313,-0.094
4/28/2023 15:32:04.880,-1.738,-0.422,-0.191
4/28/2023 15:32:04.890,-1.793,-0.539,-0.316
4/28/2023 15:32:04.900,-1.891,-0.664,-0.406
4/28/2023 15:32:04.910,-2.039,-0.84,-0.469
4/28/2023 15:32:04.920,-2.246,-1.309,-0.609
4/28/2023 15:32:04.930,-2.305,-1.73,-0.648
4/28/2023 15:32:04.940,-2.297,-1.18,-0.563
4/28/2023 15:32:04.950,-2.668,-0.078,-0.738
4/28/2023 15:32:04.960,-2.602,0.492,-0.84
4/28/2023 15:32:04.970,-2.328,0.457,-0.871
4/28/2023 15:32:04.980,-2.348,0.02,-0.793
4/28/2023 15:32:04.990,-1.988,-0.52,-0.969
4/28/2023 15:32:05.000,-0.977,-0.887,-0.934
4/28/2023 15:32:05.010,-1.207,-0.559,-0.547
4/28/2023 15:32:05.020,-1.516,0.629,-0.328
4/28/2023 15:32:05.030,-1.055,0.773,-0.27
4/28/2023 15:32:05.040,-0.754,-0.098,-0.152
4/28/2023 15:32:05.050,-0.473,-0.574,-0.152
4/28/2023 15:32:05.060,-0.262,-0.695,-0.016
4/28/2023 15:32:05.070,-0.086,-0.629,0.199
4/28/2023 15:32:05.080,-0.02,-0.559,0.27
4/28/2023 15:32:05.090,-0.027,-0.465,0.262
4/28/2023 15:32:05.100,-0.039,-0.379,0.215
4/28/2023 15:32:05.110,-0.063,-0.309,0.18
4/28/2023 15:32:05.120,-0.148,-0.324,0.148
4/28/2023 15:32:05.130,-0.238,-0.379,0.137
4/28/2023 15:32:05.140,-0.289,-0.402,0.113
4/28/2023 15:32:05.150,-0.328,-0.387,0.098
4/28/2023 15:32:05.160,-0.383,-0.293,0.074
4/28/2023 15:32:05.170,-0.422,-0.211,0.051
4/28/2023 15:32:05.180,-0.461,-0.176,0.035
4/28/2023 15:32:05.190,-0.516,-0.172,0.023
4/28/2023 15:32:05.200,-0.602,-0.18,0.004
4/28/2023 15:32:05.210,-0.707,-0.18,0.012
4/28/2023 15:32:05.220,-0.867,-0.164,0.031
4/28/2023 15:32:05.230,-1.051,-0.133,0.055
4/28/2023 15:32:05.240,-1.313,-0.094,0.051
4/28/2023 15:32:05.250,-1.621,-0.063,0.023
4/28/2023 15:32:05.260,-1.965,0.027,-0.055
4/28/2023 15:32:05.270,-2.238,0.277,-0.16
4/28/2023 15:32:05.280,-2.523,0.598,-0.258
4/28/2023 15:32:05.290,-2.816,0.891,-0.367
4/28/2023 15:32:05.300,-2.957,1.023,-0.492
4/28/2023 15:32:05.310,-2.801,1.055,-0.566
4/28/2023 15:32:05.320,-2.559,1.531,-0.707
4/28/2023 15:32:05.330,-2.398,2.469,-0.824
4/28/2023 15:32:05.340,-2.078,3.191,-0.449
4/28/2023 15:32:05.350,-1.898,3.227,-0.195
4/28/2023 15:32:05.360,-1.98,3.188,-0.176
4/28/2023 15:32:05.370,-1.867,2.684,-0.195
4/28/2023 15:32:05.380,-1.672,1.965,-0.438
4/28/2023 15:32:05.390,-1.484,0.648,-0.977
4/28/2023 15:32:05.400,-2.051,-2.34,-0.414
4/28/2023 15:32:05.410,-2.543,-1.867,1.414
4/28/2023 15:32:05.420,-2.633,0.273,1.398
4/28/2023 15:32:05.430,-2.621,1.496,0.277
4/28/2023 15:32:05.440,-2.328,1.191,-0.566
4/28/2023 15:32:05.450,-1.059,0.504,-0.355
4/28/2023 15:32:05.460,-0.055,0.336,-0.109
4/28/2023 15:32:05.470,-0.07,0.539,-0.359
4/28/2023 15:32:05.480,-0.621,1.172,-0.523
4/28/2023 15:32:05.490,-1.195,1.438,-0.484
4/28/2023 15:32:05.500,-1.227,0.988,-0.328
4/28/2023 15:32:05.510,-1.156,0.762,-0.18
4/28/2023 15:32:05.520,-1.016,0.578,0.074
4/28/2023 15:32:05.530,-0.887,0.219,0.336
4/28/2023 15:32:05.540,-0.945,0.027,0.344
4/28/2023 15:32:05.550,-0.996,-0.004,0.121
4/28/2023 15:32:05.560,-1.02,-0.035,-0.043
4/28/2023 15:32:05.570,-1.055,-0.082,-0.133
4/28/2023 15:32:05.580,-1.059,-0.113,-0.266
4/28/2023 15:32:05.590,-1.066,-0.094,-0.43
4/28/2023 15:32:05.600,-1.07,-0.051,-0.414
4/28/2023 15:32:05.610,-1.07,-0.023,-0.305
4/28/2023 15:32:05.620,-1.059,-0.016,-0.195
4/28/2023 15:32:05.630,-1.066,-0.07,-0.094
4/28/2023 15:32:05.640,-1.105,-0.133,-0.043
4/28/2023 15:32:05.650,-1.145,-0.109,-0.066
4/28/2023 15:32:05.660,-1.164,-0.059,-0.141
4/28/2023 15:32:05.670,-1.152,-0.051,-0.242
4/28/2023 15:32:05.680,-1.102,-0.117,-0.301
4/28/2023 15:32:05.690,-1.066,-0.152,-0.289
4/28/2023 15:32:05.700,-1.047,-0.105,-0.254
4/28/2023 15:32:05.710,-1.059,-0.102,-0.219
4/28/2023 15:32:05.720,-1.066,-0.109,-0.203
4/28/2023 15:32:05.730,-1.086,-0.113,-0.195
4/28/2023 15:32:05.740,-1.113,-0.074,-0.215
4/28/2023 15:32:05.750,-1.145,-0.02,-0.25
4/28/2023 15:32:05.760,-1.188,0.023,-0.25
4/28/2023 15:32:05.770,-1.25,0.008,-0.203
4/28/2023 15:32:05.780,-1.289,-0.066,-0.168
4/28/2023 15:32:05.790,-1.27,-0.207,-0.156
4/28/2023 15:32:05.800,-1.277,-0.25,-0.152
4/28/2023 15:32:05.810,-1.371,-0.25,-0.168
4/28/2023 15:32:05.820,-1.465,-0.262,-0.188
4/28/2023 15:32:05.830,-1.492,-0.328,-0.156
4/28/2023 15:32:05.840,-1.516,-0.383,-0.051
4/28/2023 15:32:05.850,-1.578,-0.395,0.043
4/28/2023 15:32:05.860,-1.68,-0.434,0.016
4/28/2023 15:32:05.870,-1.789,-0.547,-0.145
4/28/2023 15:32:05.880,-1.855,-0.688,-0.348
4/28/2023 15:32:05.890,-1.867,-0.766,-0.426
4/28/2023 15:32:05.900,-1.906,-0.941,-0.434
4/28/2023 15:32:05.910,-2.035,-1.242,-0.52
4/28/2023 15:32:05.920,-2.227,-1.426,-0.68
4/28/2023 15:32:05.930,-2.383,-1.121,-0.762
4/28/2023 15:32:05.940,-2.723,-0.234,-0.813
4/28/2023 15:32:05.950,-2.723,0.297,-0.746
4/28/2023 15:32:05.960,-2.367,0.52,-0.832
4/28/2023 15:32:05.970,-2.328,0.254,-0.898
4/28/2023 15:32:05.980,-2.004,-0.402,-1.086
4/28/2023 15:32:05.990,-0.984,-0.801,-0.879
4/28/2023 15:32:06.000,-1.457,-0.461,-0.469
4/28/2023 15:32:06.010,-1.477,0.824,-0.305
4/28/2023 15:32:06.020,-1.16,0.891,-0.305
4/28/2023 15:32:06.030,-0.887,0.027,-0.199
4/28/2023 15:32:06.040,-0.574,-0.297,-0.18
4/28/2023 15:32:06.050,-0.336,-0.324,-0.035
4/28/2023 15:32:06.060,-0.164,-0.305,0.105
4/28/2023 15:32:06.070,-0.086,-0.297,0.141
4/28/2023 15:32:06.080,-0.07,-0.246,0.109
4/28/2023 15:32:06.090,-0.07,-0.152,0.07
4/28/2023 15:32:06.100,-0.082,-0.07,0.047
4/28/2023 15:32:06.110,-0.109,-0.074,0.035
4/28/2023 15:32:06.120,-0.152,-0.145,0.055
4/28/2023 15:32:06.130,-0.207,-0.195,0.039
4/28/2023 15:32:06.140,-0.246,-0.219,0.016
4/28/2023 15:32:06.150,-0.309,-0.207,-0.027
4/28/2023 15:32:06.160,-0.367,-0.172,-0.055
4/28/2023 15:32:06.170,-0.41,-0.156,-0.07
4/28/2023 15:32:06.180,-0.445,-0.16,-0.078
4/28/2023 15:32:06.190,-0.473,-0.16,-0.082
4/28/2023 15:32:06.200,-0.52,-0.152,-0.074
4/28/2023 15:32:06.210,-0.59,-0.133,-0.055
4/28/2023 15:32:06.220,-0.684,-0.109,-0.039
4/28/2023 15:32:06.230,-0.797,-0.078,-0.035
4/28/2023 15:32:06.240,-0.977,-0.043,-0.027
4/28/2023 15:32:06.250,-1.219,-0.035,-0.027
4/28/2023 15:32:06.260,-1.531,0.004,-0.074
4/28/2023 15:32:06.270,-1.824,0.125,-0.121
4/28/2023 15:32:06.280,-2.078,0.336,-0.152
4/28/2023 15:32:06.290,-2.383,0.613,-0.215
4/28/2023 15:32:06.300,-2.719,0.922,-0.281
4/28/2023 15:32:06.310,-2.879,1.16,-0.32
4/28/2023 15:32:06.320,-2.734,1.102,-0.289
4/28/2023 15:32:06.330,-2.613,1.344,-0.492
4/28/2023 15:32:06.340,-2.418,2.152,-0.789
4/28/2023 15:32:06.350,-2.129,3.121,-0.305
4/28/2023 15:32:06.360,-1.887,3.273,0.141
4/28/2023 15:32:06.370,-1.965,2.992,0.211
4/28/2023 15:32:06.380,-1.813,2.555,0.219
4/28/2023 15:32:06.390,-1.598,2.012,0.16
4/28/2023 15:32:06.400,-1.512,1.801,0.109
4/28/2023 15:32:06.410,-1.5,1.336,-0.313
4/28/2023 15:32:06.420,-1.313,-1.363,-0.793
4/28/2023 15:32:06.430,-2.27,-5.18,0.539
4/28/2023 15:32:06.440,-1.707,-2.289,1.52
4/28/2023 15:32:06.450,-2.031,0.992,0.879
4/28/2023 15:32:06.460,-2.348,2.051,0.102
4/28/2023 15:32:06.470,-1.895,1.234,-0.395
4/28/2023 15:32:06.480,-0.93,0.355,-0.496
4/28/2023 15:32:06.490,-0.734,0.094,-0.539
4/28/2023 15:32:06.500,-0.824,0.277,-0.805
4/28/2023 15:32:06.510,-1.082,0.965,-0.793
4/28/2023 15:32:06.520,-1.238,1.297,-0.5
4/28/2023 15:32:06.530,-1.043,0.789,-0.195
4/28/2023 15:32:06.540,-0.996,0.613,-0.184
4/28/2023 15:32:06.550,-1.031,0.594,-0.223
4/28/2023 15:32:06.560,-0.938,0.387,0.188
4/28/2023 15:32:06.570,-0.906,0.266,0.395
4/28/2023 15:32:06.580,-0.891,0.168,0.328
4/28/2023 15:32:06.590,-0.938,0.02,0.145
4/28/2023 15:32:06.600,-1.059,0,0
4/28/2023 15:32:06.610,-1.07,0.027,-0.039
4/28/2023 15:32:06.620,-1.039,-0.004,-0.211
4/28/2023 15:32:06.630,-1.047,-0.051,-0.414
4/28/2023 15:32:06.640,-1.039,-0.07,-0.402
4/28/2023 15:32:06.650,-1.039,-0.023,-0.336
4/28/2023 15:32:06.660,-1.07,-0.016,-0.262
4/28/2023 15:32:06.670,-1.109,-0.078,-0.176
4/28/2023 15:32:06.680,-1.137,-0.137,-0.152
4/28/2023 15:32:06.690,-1.141,-0.133,-0.211
4/28/2023 15:32:06.700,-1.113,-0.168,-0.277
4/28/2023 15:32:06.710,-1.09,-0.223,-0.316
4/28/2023 15:32:06.720,-1.07,-0.219,-0.344
4/28/2023 15:32:06.730,-1.051,-0.203,-0.363
4/28/2023 15:32:06.740,-1.051,-0.195,-0.355
4/28/2023 15:32:06.750,-1.043,-0.152,-0.363
4/28/2023 15:32:06.760,-1.074,-0.121,-0.324
4/28/2023 15:32:06.770,-1.113,-0.055,-0.285
4/28/2023 15:32:06.780,-1.176,-0.02,-0.227
4/28/2023 15:32:06.790,-1.242,-0.055,-0.164
4/28/2023 15:32:06.800,-1.273,-0.09,-0.176
4/28/2023 15:32:06.810,-1.277,-0.141,-0.172
4/28/2023 15:32:06.820,-1.305,-0.156,-0.113
4/28/2023 15:32:06.830,-1.344,-0.188,-0.063
4/28/2023 15:32:06.840,-1.43,-0.258,-0.066
4/28/2023 15:32:06.850,-1.523,-0.316,-0.117
4/28/2023 15:32:06.860,-1.563,-0.344,-0.156
4/28/2023 15:32:06.870,-1.594,-0.379,-0.105
4/28/2023 15:32:06.880,-1.621,-0.402,-0.008
4/28/2023 15:32:06.890,-1.68,-0.438,0.016
4/28/2023 15:32:06.900,-1.762,-0.512,-0.098
4/28/2023 15:32:06.910,-1.828,-0.621,-0.289
4/28/2023 15:32:06.920,-1.867,-0.711,-0.441
4/28/2023 15:32:06.930,-1.871,-0.797,-0.586
4/28/2023 15:32:06.940,-1.953,-1.082,-0.746
4/28/2023 15:32:06.950,-2.102,-1.457,-0.793
4/28/2023 15:32:06.960,-2.281,-1.152,-0.664
4/28/2023 15:32:06.970,-2.605,-0.148,-0.613
4/28/2023 15:32:06.980,-2.484,0.559,-0.715
4/28/2023 15:32:06.990,-2.301,0.605,-0.828
4/28/2023 15:32:07.000,-2.219,0.313,-0.922
4/28/2023 15:32:07.010,-1.969,-0.32,-1.273
4/28/2023 15:32:07.020,-0.902,-0.82,-1.016
4/28/2023 15:32:07.030,-1.453,-0.527,-0.641
4/28/2023 15:32:07.040,-1.5,0.617,-0.391
4/28/2023 15:32:07.050,-0.992,0.563,-0.277
4/28/2023 15:32:07.060,-0.785,-0.316,-0.152
4/28/2023 15:32:07.070,-0.488,-0.594,-0.121
4/28/2023 15:32:07.080,-0.246,-0.59,-0.004
4/28/2023 15:32:07.090,-0.121,-0.527,0.109
4/28/2023 15:32:07.100,-0.043,-0.445,0.117
4/28/2023 15:32:07.110,-0.027,-0.352,0.078
4/28/2023 15:32:07.120,-0.039,-0.25,0.031
4/28/2023 15:32:07.130,-0.09,-0.199,-0.008
4/28/2023 15:32:07.140,-0.156,-0.219,-0.031
4/28/2023 15:32:07.150,-0.211,-0.266,-0.031
4/28/2023 15:32:07.160,-0.238,-0.293,-0.047
4/28/2023 15:32:07.170,-0.281,-0.293,-0.078
4/28/2023 15:32:07.180,-0.355,-0.25,-0.113
4/28/2023 15:32:07.190,-0.422,-0.203,-0.137
4/28/2023 15:32:07.200,-0.477,-0.172,-0.141
4/28/2023 15:32:07.210,-0.555,-0.141,-0.164
4/28/2023 15:32:07.220,-0.648,-0.125,-0.168
4/28/2023 15:32:07.230,-0.758,-0.117,-0.145
4/28/2023 15:32:07.240,-0.891,-0.105,-0.113
4/28/2023 15:32:07.250,-1.082,-0.063,-0.094
4/28/2023 15:32:07.260,-1.355,-0.035,-0.082
4/28/2023 15:32:07.270,-1.66,-0.031,-0.117
4/28/2023 15:32:07.280,-1.941,0.074,-0.184
4/28/2023 15:32:07.290,-2.168,0.227,-0.191
4/28/2023 15:32:07.300,-2.469,0.414,-0.211
4/28/2023 15:32:07.310,-2.875,0.684,-0.262
4/28/2023 15:32:07.320,-3.117,0.941,-0.344
4/28/2023 15:32:07.330,-2.973,0.961,-0.332
4/28/2023 15:32:07.340,-2.789,1.406,-0.516
4/28/2023 15:32:07.350,-2.512,2.512,-0.582
4/28/2023 15:32:07.360,-2.207,3.375,0.141
4/28/2023 15:32:07.370,-1.949,3.078,0.465
4/28/2023 15:32:07.380,-2.043,2.859,0.457
4/28/2023 15:32:07.390,-1.887,2.578,0.379
4/28/2023 15:32:07.400,-1.664,2.168,0.434
4/28/2023 15:32:07.410,-1.734,1.883,0.219
4/28/2023 15:32:07.420,-1.359,0.855,-0.691
4/28/2023 15:32:07.430,-1.703,-3.488,-1.281
4/28/2023 15:32:07.440,-2.238,-3.344,1.559
4/28/2023 15:32:07.450,-2.43,0.137,1.82
4/28/2023 15:32:07.460,-2.418,1.898,0.508
4/28/2023 15:32:07.470,-2.109,1.723,-0.445
4/28/2023 15:32:07.480,-1.074,0.984,-0.602
4/28/2023 15:32:07.490,-0.648,0.504,-0.355
4/28/2023 15:32:07.500,-0.609,0.418,-0.508
4/28/2023 15:32:07.510,-0.992,1.016,-0.695
4/28/2023 15:32:07.520,-1.324,1.461,-0.543
4/28/2023 15:32:07.530,-1.102,0.969,-0.277
4/28/2023 15:32:07.540,-1.035,0.727,-0.215
4/28/2023 15:32:07.550,-1.008,0.621,-0.223
4/28/2023 15:32:07.560,-0.941,0.352,0.055
4/28/2023 15:32:07.570,-0.91,0.246,0.348
4/28/2023 15:32:07.580,-0.934,0.195,0.266
4/28/2023 15:32:07.590,-0.977,0.063,0.125
4/28/2023 15:32:07.600,-1.059,-0.051,0.031
4/28/2023 15:32:07.610,-1.113,-0.121,-0.059
4/28/2023 15:32:07.620,-1.109,-0.172,-0.273
4/28/2023 15:32:07.630,-1.09,-0.145,-0.371
4/28/2023 15:32:07.640,-1.07,-0.113,-0.391
4/28/2023 15:32:07.650,-1.102,-0.074,-0.387
4/28/2023 15:32:07.660,-1.113,-0.059,-0.324
4/28/2023 15:32:07.670,-1.117,-0.113,-0.281
4/28/2023 15:32:07.680,-1.137,-0.148,-0.281
4/28/2023 15:32:07.690,-1.129,-0.18,-0.344
4/28/2023 15:32:07.700,-1.086,-0.285,-0.398
4/28/2023 15:32:07.710,-1.012,-0.34,-0.426
4/28/2023 15:32:07.720,-0.98,-0.297,-0.449
4/28/2023 15:32:07.730,-0.98,-0.191,-0.465
4/28/2023 15:32:07.740,-0.992,-0.102,-0.453
4/28/2023 15:32:07.750,-1.016,-0.031,-0.422
4/28/2023 15:32:07.760,-1.059,0.008,-0.359
4/28/2023 15:32:07.770,-1.117,0.035,-0.258
4/28/2023 15:32:07.780,-1.195,0.027,-0.148
4/28/2023 15:32:07.790,-1.266,-0.035,-0.086
4/28/2023 15:32:07.800,-1.305,-0.129,-0.082
4/28/2023 15:32:07.810,-1.273,-0.223,-0.105
4/28/2023 15:32:07.820,-1.242,-0.254,-0.129
4/28/2023 15:32:07.830,-1.313,-0.23,-0.168
4/28/2023 15:32:07.840,-1.426,-0.188,-0.172
4/28/2023 15:32:07.850,-1.543,-0.227,-0.16
4/28/2023 15:32:07.860,-1.605,-0.324,-0.109
4/28/2023 15:32:07.870,-1.613,-0.406,-0.039
4/28/2023 15:32:07.880,-1.668,-0.438,-0.039
4/28/2023 15:32:07.890,-1.754,-0.516,-0.168
4/28/2023 15:32:07.900,-1.828,-0.629,-0.316
4/28/2023 15:32:07.910,-1.922,-0.73,-0.406
4/28/2023 15:32:07.920,-2.02,-0.863,-0.453
4/28/2023 15:32:07.930,-2.16,-1.203,-0.566
4/28/2023 15:32:07.940,-2.262,-1.652,-0.648
4/28/2023 15:32:07.950,-2.285,-1.43,-0.605
4/28/2023 15:32:07.960,-2.691,-0.336,-0.766
4/28/2023 15:32:07.970,-2.617,0.578,-0.832
4/28/2023 15:32:07.980,-2.344,0.887,-0.828
4/28/2023 15:32:07.990,-2.328,0.41,-0.805
4/28/2023 15:32:08.000,-1.969,-0.289,-0.977
4/28/2023 15:32:08.010,-0.918,-0.633,-0.93
4/28/2023 15:32:08.020,-1.316,-0.445,-0.625
4/28/2023 15:32:08.030,-1.41,0.609,-0.348
4/28/2023 15:32:08.040,-0.934,0.914,-0.293
4/28/2023 15:32:08.050,-0.766,0.066,-0.199
4/28/2023 15:32:08.060,-0.5,-0.398,-0.117
4/28/2023 15:32:08.070,-0.313,-0.531,-0.07
4/28/2023 15:32:08.080,-0.121,-0.508,0.039
4/28/2023 15:32:08.090,-0.066,-0.504,0.137
4/28/2023 15:32:08.100,-0.008,-0.461,0.152
4/28/2023 15:32:08.110,-0.008,-0.402,0.164
4/28/2023 15:32:08.120,-0.027,-0.324,0.145
4/28/2023 15:32:08.130,-0.078,-0.297,0.113
4/28/2023 15:32:08.140,-0.148,-0.332,0.094
4/28/2023 15:32:08.150,-0.195,-0.359,0.07
4/28/2023 15:32:08.160,-0.227,-0.387,0.059
4/28/2023 15:32:08.170,-0.281,-0.379,0.051
4/28/2023 15:32:08.180,-0.363,-0.355,0.039
4/28/2023 15:32:08.190,-0.43,-0.332,0.02
4/28/2023 15:32:08.200,-0.504,-0.293,0.016
4/28/2023 15:32:08.210,-0.602,-0.258,0.004
4/28/2023 15:32:08.220,-0.715,-0.238,0.004
4/28/2023 15:32:08.230,-0.84,-0.242,0.031
4/28/2023 15:32:08.240,-0.973,-0.25,0.063
4/28/2023 15:32:08.250,-1.148,-0.23,0.105
4/28/2023 15:32:08.260,-1.383,-0.188,0.117
4/28/2023 15:32:08.270,-1.672,-0.133,0.086
4/28/2023 15:32:08.280,-1.949,-0.016,0.035
4/28/2023 15:32:08.290,-2.152,0.176,0.008
4/28/2023 15:32:08.300,-2.383,0.441,-0.063
4/28/2023 15:32:08.310,-2.641,0.746,-0.168
4/28/2023 15:32:08.320,-2.828,0.988,-0.258
4/28/2023 15:32:08.330,-2.809,1.02,-0.352
4/28/2023 15:32:08.340,-2.637,1.191,-0.441
4/28/2023 15:32:08.350,-2.438,2.09,-0.801
4/28/2023 15:32:08.360,-2.191,2.969,-0.672
4/28/2023 15:32:08.370,-1.84,3.223,-0.273
4/28/2023 15:32:08.380,-1.863,3.039,-0.09
4/28/2023 15:32:08.390,-1.859,2.828,0.016
4/28/2023 15:32:08.400,-1.652,2.352,0.141
4/28/2023 15:32:08.410,-1.727,1.816,0.078
4/28/2023 15:32:08.420,-1.477,0.961,-0.496
4/28/2023 15:32:08.430,-1.594,-2.289,-0.828
4/28/2023 15:32:08.440,-2.336,-3.527,1.129
4/28/2023 15:32:08.450,-2.25,-0.883,1.355
4/28/2023 15:32:08.460,-2.48,1.293,0.73
4/28/2023 15:32:08.470,-2.398,1.598,-0.266
4/28/2023 15:32:08.480,-1.492,0.609,-0.473
4/28/2023 15:32:08.490,-0.484,0.199,-0.258
4/28/2023 15:32:08.500,-0.227,0.266,-0.441
4/28/2023 15:32:08.510,-0.66,0.641,-0.82
4/28/2023 15:32:08.520,-1.27,1.332,-0.73
4/28/2023 15:32:08.530,-1.328,1.238,-0.355
4/28/2023 15:32:08.540,-1.086,0.84,-0.117
4/28/2023 15:32:08.550,-1.031,0.719,-0.215
4/28/2023 15:32:08.560,-0.973,0.512,-0.09
4/28/2023 15:32:08.570,-0.875,0.25,0.344
4/28/2023 15:32:08.580,-0.902,0.152,0.34
4/28/2023 15:32:08.590,-0.941,0.063,0.125
4/28/2023 15:32:08.600,-1.023,0.031,-0.039
4/28/2023 15:32:08.610,-1.086,0.078,-0.094
4/28/2023 15:32:08.620,-1.059,0.059,-0.141
4/28/2023 15:32:08.630,-1.055,0.027,-0.293
4/28/2023 15:32:08.640,-1.063,0.004,-0.34
4/28/2023 15:32:08.650,-1.082,0.012,-0.289
4/28/2023 15:32:08.660,-1.086,0.027,-0.223
4/28/2023 15:32:08.670,-1.09,-0.012,-0.184
4/28/2023 15:32:08.680,-1.105,-0.078,-0.145
4/28/2023 15:32:08.690,-1.145,-0.105,-0.152
4/28/2023 15:32:08.700,-1.199,-0.063,-0.184
4/28/2023 15:32:08.710,-1.215,-0.047,-0.211
4/28/2023 15:32:08.720,-1.184,-0.16,-0.227
4/28/2023 15:32:08.730,-1.117,-0.281,-0.234
4/28/2023 15:32:08.740,-1.07,-0.328,-0.234
4/28/2023 15:32:08.750,-1.023,-0.324,-0.223
4/28/2023 15:32:08.760,-0.988,-0.277,-0.223
4/28/2023 15:32:08.770,-0.996,-0.195,-0.27
4/28/2023 15:32:08.780,-1.047,-0.129,-0.336
4/28/2023 15:32:08.790,-1.098,-0.059,-0.359
4/28/2023 15:32:08.800,-1.16,0.008,-0.32
4/28/2023 15:32:08.810,-1.23,-0.004,-0.23
4/28/2023 15:32:08.820,-1.293,-0.039,-0.184
4/28/2023 15:32:08.830,-1.305,-0.109,-0.168
4/28/2023 15:32:08.840,-1.277,-0.195,-0.113
4/28/2023 15:32:08.850,-1.297,-0.289,-0.039
4/28/2023 15:32:08.860,-1.367,-0.324,0.012
4/28/2023 15:32:08.870,-1.457,-0.375,0.02
4/28/2023 15:32:08.880,-1.551,-0.445,0.039
4/28/2023 15:32:08.890,-1.586,-0.465,0.055
4/28/2023 15:32:08.900,-1.629,-0.488,-0.039
4/28/2023 15:32:08.910,-1.719,-0.539,-0.23
4/28/2023 15:32:08.920,-1.797,-0.609,-0.48
4/28/2023 15:32:08.930,-1.777,-0.703,-0.617
4/28/2023 15:32:08.940,-1.676,-0.887,-0.617
4/28/2023 15:32:08.950,-1.695,-1.059,-0.617
4/28/2023 15:32:08.960,-1.98,-1.234,-0.648
4/28/2023 15:32:08.970,-2.309,-1.023,-0.582
4/28/2023 15:32:08.980,-2.719,-0.129,-0.547
4/28/2023 15:32:08.990,-2.637,0.418,-0.605
4/28/2023 15:32:09.000,-2.461,0.363,-0.785
4/28/2023 15:32:09.010,-2.309,0.254,-0.852
4/28/2023 15:32:09.020,-2.004,-0.234,-1.141
4/28/2023 15:32:09.030,-1.027,-0.707,-0.941
4/28/2023 15:32:09.040,-1.23,-0.508,-0.652
4/28/2023 15:32:09.050,-1.676,0.664,-0.289
4/28/2023 15:32:09.060,-1,0.914,-0.246
4/28/2023 15:32:09.070,-0.883,-0.094,-0.207
4/28/2023 15:32:09.080,-0.613,-0.516,-0.164
4/28/2023 15:32:09.090,-0.324,-0.547,-0.063
4/28/2023 15:32:09.100,-0.168,-0.492,0.074
4/28/2023 15:32:09.110,-0.09,-0.43,0.117
4/28/2023 15:32:09.120,-0.074,-0.336,0.121
4/28/2023 15:32:09.130,-0.074,-0.207,0.086
4/28/2023 15:32:09.140,-0.094,-0.148,0.047
4/28/2023 15:32:09.150,-0.133,-0.18,0.035
4/28/2023 15:32:09.160,-0.18,-0.273,0.035
4/28/2023 15:32:09.170,-0.234,-0.324,0.023
4/28/2023 15:32:09.180,-0.285,-0.305,-0.008
4/28/2023 15:32:09.190,-0.359,-0.262,-0.059
4/28/2023 15:32:09.200,-0.414,-0.207,-0.094
4/28/2023 15:32:09.210,-0.457,-0.164,-0.129
4/28/2023 15:32:09.220,-0.496,-0.145,-0.133
4/28/2023 15:32:09.230,-0.555,-0.129,-0.145
4/28/2023 15:32:09.240,-0.637,-0.125,-0.133
4/28/2023 15:32:09.250,-0.719,-0.129,-0.121
4/28/2023 15:32:09.260,-0.824,-0.133,-0.105
4/28/2023 15:32:09.270,-0.996,-0.129,-0.094
4/28/2023 15:32:09.280,-1.273,-0.129,-0.078
4/28/2023 15:32:09.290,-1.629,-0.129,-0.098
4/28/2023 15:32:09.300,-1.965,-0.023,-0.156
4/28/2023 15:32:09.310,-2.238,0.258,-0.215
4/28/2023 15:32:09.320,-2.547,0.555,-0.242
4/28/2023 15:32:09.330,-2.91,0.82,-0.32
4/28/2023 15:32:09.340,-3.047,0.926,-0.48
4/28/2023 15:32:09.350,-2.785,0.816,-0.512
4/28/2023 15:32:09.360,-2.582,1.406,-0.914
4/28/2023 15:32:09.370,-2.461,2.57,-0.738
4/28/2023 15:32:09.380,-2.012,3.172,0.301
4/28/2023 15:32:09.390,-1.863,2.742,0.648
4/28/2023 15:32:09.400,-1.957,2.469,0.605
4/28/2023 15:32:09.410,-1.902,2.074,0.445
4/28/2023 15:32:09.420,-1.75,1.742,0.516
4/28/2023 15:32:09.430,-1.676,1.566,0.379
4/28/2023 15:32:09.440,-1.516,0.973,-0.203
4/28/2023 15:32:09.450,-1.547,-1.555,-0.699
4/28/2023 15:32:09.460,-2.227,-3.77,0.723
4/28/2023 15:32:09.470,-2.379,-1.551,1.543
4/28/2023 15:32:09.480,-2.324,1.148,0.887
4/28/2023 15:32:09.490,-1.918,1.934,-0.078
4/28/2023 15:32:09.500,-1.422,0.977,-0.516
4/28/2023 15:32:09.510,-0.609,0.176,-0.402
4/28/2023 15:32:09.520,-0.324,0.266,-0.422
4/28/2023 15:32:09.530,-0.691,0.762,-0.652
4/28/2023 15:32:09.540,-1.371,1.422,-0.648
4/28/2023 15:32:09.550,-1.34,1.344,-0.398
4/28/2023 15:32:09.560,-1.023,0.789,-0.086
4/28/2023 15:32:09.570,-1.035,0.625,-0.121
4/28/2023 15:32:09.580,-0.957,0.449,-0.07
4/28/2023 15:32:09.590,-0.879,0.285,0.23
4/28/2023 15:32:09.600,-0.91,0.289,0.328
4/28/2023 15:32:09.610,-0.961,0.266,0.172
4/28/2023 15:32:09.620,-0.992,0.227,0.047
4/28/2023 15:32:09.630,-1.047,0.223,0.039
4/28/2023 15:32:09.640,-1.055,0.133,0.055
4/28/2023 15:32:09.650,-1.09,0.012,-0.133
4/28/2023 15:32:09.660,-1.125,-0.043,-0.215
4/28/2023 15:32:09.670,-1.102,-0.063,-0.195
4/28/2023 15:32:09.680,-1.109,-0.055,-0.203
4/28/2023 15:32:09.690,-1.137,-0.055,-0.191
4/28/2023 15:32:09.700,-1.148,-0.094,-0.148
4/28/2023 15:32:09.710,-1.172,-0.121,-0.113
4/28/2023 15:32:09.720,-1.188,-0.102,-0.121
4/28/2023 15:32:09.730,-1.191,-0.098,-0.191
4/28/2023 15:32:09.740,-1.156,-0.145,-0.277
4/28/2023 15:32:09.750,-1.063,-0.188,-0.313
4/28/2023 15:32:09.760,-1.008,-0.164,-0.34
4/28/2023 15:32:09.770,-0.957,-0.141,-0.359
4/28/2023 15:32:09.780,-0.914,-0.164,-0.398
4/28/2023 15:32:09.790,-0.887,-0.191,-0.418
4/28/2023 15:32:09.800,-0.914,-0.137,-0.426
4/28/2023 15:32:09.810,-0.996,-0.047,-0.398
4/28/2023 15:32:09.820,-1.09,0.035,-0.301
4/28/2023 15:32:09.830,-1.18,0.055,-0.211
4/28/2023 15:32:09.840,-1.262,0.012,-0.109
4/28/2023 15:32:09.850,-1.316,-0.078,-0.031
4/28/2023 15:32:09.860,-1.32,-0.152,0.008
4/28/2023 15:32:09.870,-1.316,-0.254,-0.004
4/28/2023 15:32:09.880,-1.371,-0.344,-0.004
4/28/2023 15:32:09.890,-1.441,-0.355,-0.023
4/28/2023 15:32:09.900,-1.508,-0.363,-0.012
4/28/2023 15:32:09.910,-1.547,-0.395,0.027
4/28/2023 15:32:09.920,-1.566,-0.402,0.047
4/28/2023 15:32:09.930,-1.648,-0.418,-0.004
4/28/2023 15:32:09.940,-1.758,-0.477,-0.164
4/28/2023 15:32:09.950,-1.836,-0.566,-0.371
4/28/2023 15:32:09.960,-1.848,-0.664,-0.48
4/28/2023 15:32:09.970,-1.844,-0.824,-0.508
4/28/2023 15:32:09.980,-1.988,-1.145,-0.578
4/28/2023 15:32:09.990,-2.164,-1.609,-0.684
4/28/2023 15:32:10.000,-2.254,-1.418,-0.633
4/28/2023 15:32:10.010,-2.609,-0.234,-0.602
4/28/2023 15:32:10.020,-2.539,0.719,-0.645
4/28/2023 15:32:10.030,-2.289,0.809,-0.711
4/28/2023 15:32:10.040,-2.246,0.371,-0.832
4/28/2023 15:32:10.050,-1.906,-0.254,-1.02
4/28/2023 15:32:10.060,-0.934,-0.617,-0.871
4/28/2023 15:32:10.070,-1.371,-0.445,-0.512
4/28/2023 15:32:10.080,-1.492,0.602,-0.289
4/28/2023 15:32:10.090,-0.902,0.883,-0.262
4/28/2023 15:32:10.100,-0.762,-0.012,-0.211
4/28/2023 15:32:10.110,-0.523,-0.371,-0.184
4/28/2023 15:32:10.120,-0.297,-0.402,-0.043
4/28/2023 15:32:10.130,-0.156,-0.363,0.082
4/28/2023 15:32:10.140,-0.086,-0.32,0.109
4/28/2023 15:32:10.150,-0.047,-0.25,0.059
4/28/2023 15:32:10.160,-0.031,-0.168,0.02
4/28/2023 15:32:10.170,-0.082,-0.109,-0.023
4/28/2023 15:32:10.180,-0.109,-0.121,-0.051
4/28/2023 15:32:10.190,-0.145,-0.188,-0.043
4/28/2023 15:32:10.200,-0.188,-0.23,-0.035
4/28/2023 15:32:10.210,-0.23,-0.227,-0.066
4/28/2023 15:32:10.220,-0.285,-0.195,-0.109
4/28/2023 15:32:10.230,-0.352,-0.164,-0.141
4/28/2023 15:32:10.240,-0.402,-0.121,-0.176
4/28/2023 15:32:10.250,-0.465,-0.09,-0.199
4/28/2023 15:32:10.260,-0.523,-0.09,-0.215
4/28/2023 15:32:10.270,-0.59,-0.094,-0.223
4/28/2023 15:32:10.280,-0.672,-0.09,-0.207
4/28/2023 15:32:10.290,-0.762,-0.07,-0.195
4/28/2023 15:32:10.300,-0.902,-0.039,-0.203
4/28/2023 15:32:10.310,-1.098,-0.012,-0.195
4/28/2023 15:32:10.320,-1.336,-0.023,-0.176
4/28/2023 15:32:10.330,-1.625,-0.031,-0.199
4/28/2023 15:32:10.340,-1.918,0.016,-0.273
4/28/2023 15:32:10.350,-2.223,0.145,-0.395
4/28/2023 15:32:10.360,-2.656,0.496,-0.574
4/28/2023 15:32:10.370,-3.055,0.883,-0.695
4/28/2023 15:32:10.380,-3,1.078,-0.715
4/28/2023 15:32:10.390,-2.707,1.367,-0.723
4/28/2023 15:32:10.400,-2.645,1.852,-0.953
4/28/2023 15:32:10.410,-2.441,2.73,-0.484
4/28/2023 15:32:10.420,-2.004,2.906,0.332
4/28/2023 15:32:10.430,-1.918,2.543,0.535
4/28/2023 15:32:10.440,-1.953,2.203,0.52
4/28/2023 15:32:10.450,-1.902,1.918,0.625
4/28/2023 15:32:10.460,-1.785,1.727,0.699
4/28/2023 15:32:10.470,-1.766,1.383,0.363
4/28/2023 15:32:10.480,-1.43,0.242,0.02
4/28/2023 15:32:10.490,-2.027,-3.59,-0.227
4/28/2023 15:32:10.500,-2.258,-3.742,1.945
4/28/2023 15:32:10.510,-1.992,-0.746,1.695
4/28/2023 15:32:10.520,-1.785,1.367,0.617
4/28/2023 15:32:10.530,-1.73,1.664,-0.109
4/28/2023 15:32:10.540,-1.203,0.848,-0.379
4/28/2023 15:32:10.550,-0.496,0.238,-0.465
4/28/2023 15:32:10.560,-0.461,0.375,-0.832
4/28/2023 15:32:10.570,-1.031,1.004,-0.918
4/28/2023 15:32:10.580,-1.539,1.59,-0.664
4/28/2023 15:32:10.590,-1.176,1.172,-0.289
4/28/2023 15:32:10.600,-0.98,0.656,-0.105
4/28/2023 15:32:10.610,-1.055,0.559,-0.152
4/28/2023 15:32:10.620,-0.961,0.406,0.031
4/28/2023 15:32:10.630,-0.891,0.285,0.215
4/28/2023 15:32:10.640,-0.902,0.27,0.25
4/28/2023 15:32:10.650,-0.895,0.199,0.227
4/28/2023 15:32:10.660,-0.914,0.113,0.203
4/28/2023 15:32:10.670,-0.977,0.059,0.109
4/28/2023 15:32:10.680,-1.035,0.016,-0.039
4/28/2023 15:32:10.690,-1.059,0.027,-0.195
4/28/2023 15:32:10.700,-1.07,0.02,-0.34
4/28/2023 15:32:10.710,-1.07,0.012,-0.395
4/28/2023 15:32:10.720,-1.066,0.016,-0.313
4/28/2023 15:32:10.730,-1.063,-0.039,-0.211
4/28/2023 15:32:10.740,-1.117,-0.129,-0.125
4/28/2023 15:32:10.750,-1.176,-0.188,-0.055
4/28/2023 15:32:10.760,-1.156,-0.156,-0.098
4/28/2023 15:32:10.770,-1.145,-0.133,-0.242
4/28/2023 15:32:10.780,-1.117,-0.145,-0.371
4/28/2023 15:32:10.790,-1.051,-0.156,-0.453
4/28/2023 15:32:10.800,-1.008,-0.172,-0.488
4/28/2023 15:32:10.810,-0.973,-0.195,-0.512
4/28/2023 15:32:10.820,-0.957,-0.219,-0.488
4/28/2023 15:32:10.830,-0.977,-0.195,-0.445
4/28/2023 15:32:10.840,-1.035,-0.137,-0.375
4/28/2023 15:32:10.850,-1.113,-0.074,-0.289
4/28/2023 15:32:10.860,-1.188,0,-0.207
4/28/2023 15:32:10.870,-1.262,0.016,-0.121
4/28/2023 15:32:10.880,-1.332,-0.016,-0.066
4/28/2023 15:32:10.890,-1.375,-0.059,-0.027
4/28/2023 15:32:10.900,-1.359,-0.152,0.004
4/28/2023 15:32:10.910,-1.363,-0.246,0.016
4/28/2023 15:32:10.920,-1.379,-0.27,0.027
4/28/2023 15:32:10.930,-1.414,-0.309,-0.004
4/28/2023 15:32:10.940,-1.484,-0.352,-0.016
4/28/2023 15:32:10.950,-1.543,-0.391,-0.02
4/28/2023 15:32:10.960,-1.586,-0.371,-0.039
4/28/2023 15:32:10.970,-1.664,-0.363,-0.137
4/28/2023 15:32:10.980,-1.746,-0.422,-0.32
4/28/2023 15:32:10.990,-1.832,-0.555,-0.512
4/28/2023 15:32:11.000,-1.879,-0.676,-0.559
4/28/2023 15:32:11.010,-1.902,-0.797,-0.531
4/28/2023 15:32:11.020,-2.027,-1.074,-0.539
4/28/2023 15:32:11.030,-2.199,-1.539,-0.656
4/28/2023 15:32:11.040,-2.254,-1.238,-0.602
4/28/2023 15:32:11.050,-2.535,-0.156,-0.527
4/28/2023 15:32:11.060,-2.543,0.68,-0.641
4/28/2023 15:32:11.070,-2.273,0.609,-0.672
4/28/2023 15:32:11.080,-2.203,0.254,-0.727
4/28/2023 15:32:11.090,-1.902,-0.23,-0.945
4/28/2023 15:32:11.100,-0.957,-0.648,-0.926
4/28/2023 15:32:11.110,-1.262,-0.605,-0.563
4/28/2023 15:32:11.120,-1.535,0.43,-0.281
4/28/2023 15:32:11.130,-0.898,0.852,-0.215
4/28/2023 15:32:11.140,-0.789,-0.047,-0.16
4/28/2023 15:32:11.150,-0.563,-0.434,-0.109
4/28/2023 15:32:11.160,-0.313,-0.492,0.043
4/28/2023 15:32:11.170,-0.184,-0.496,0.188
4/28/2023 15:32:11.180,-0.133,-0.473,0.207
4/28/2023 15:32:11.190,-0.063,-0.43,0.168
4/28/2023 15:32:11.200,-0.07,-0.406,0.172
4/28/2023 15:32:11.210,-0.137,-0.367,0.18
4/28/2023 15:32:11.220,-0.215,-0.363,0.195
4/28/2023 15:32:11.230,-0.262,-0.363,0.199
4/28/2023 15:32:11.240,-0.281,-0.363,0.199
4/28/2023 15:32:11.250,-0.32,-0.355,0.176
4/28/2023 15:32:11.260,-0.395,-0.344,0.152
4/28/2023 15:32:11.270,-0.469,-0.309,0.117
4/28/2023 15:32:11.280,-0.516,-0.266,0.082
4/28/2023 15:32:11.290,-0.566,-0.23,0.066
4/28/2023 15:32:11.300,-0.641,-0.211,0.059
4/28/2023 15:32:11.310,-0.742,-0.215,0.066
4/28/2023 15:32:11.320,-0.836,-0.227,0.086
4/28/2023 15:32:11.330,-0.934,-0.23,0.109
4/28/2023 15:32:11.340,-1.07,-0.227,0.129
4/28/2023 15:32:11.350,-1.262,-0.211,0.137
4/28/2023 15:32:11.360,-1.543,-0.188,0.113
4/28/2023 15:32:11.370,-1.84,-0.16,0.094
4/28/2023 15:32:11.380,-2.07,-0.063,0.105
4/28/2023 15:32:11.390,-2.262,0.125,0.117
4/28/2023 15:32:11.400,-2.504,0.324,0.09
4/28/2023 15:32:11.410,-2.793,0.547,0.008
4/28/2023 15:32:11.420,-2.902,0.793,-0.125
4/28/2023 15:32:11.430,-2.738,0.977,-0.141
4/28/2023 15:32:11.440,-2.488,1.688,-0.328
4/28/2023 15:32:11.450,-2.324,2.637,-0.383
4/28/2023 15:32:11.460,-1.984,3.266,-0.02
4/28/2023 15:32:11.470,-1.813,3.188,0.133
4/28/2023 15:32:11.480,-1.879,2.895,0.09
4/28/2023 15:32:11.490,-1.727,2.414,0.098
4/28/2023 15:32:11.500,-1.824,1.75,-0.074
4/28/2023 15:32:11.510,-1.383,0.605,-0.977
4/28/2023 15:32:11.520,-1.766,-3.27,-1.121
4/28/2023 15:32:11.530,-2.176,-2.742,1.188
4/28/2023 15:32:11.540,-2.254,0.129,1.234
4/28/2023 15:32:11.550,-2.512,1.559,0.563
4/28/2023 15:32:11.560,-2.555,1.223,-0.309
4/28/2023 15:32:11.570,-1.445,0.414,-0.395
4/28/2023 15:32:11.580,-0.434,0.191,-0.242
4/28/2023 15:32:11.590,-0.199,0.156,-0.301
4/28/2023 15:32:11.600,-0.688,0.727,-0.559
4/28/2023 15:32:11.610,-1.395,1.457,-0.527
4/28/2023 15:32:11.620,-1.203,1.195,-0.305
4/28/2023 15:32:11.630,-1.047,0.871,-0.148
4/28/2023 15:32:11.640,-1.02,0.797,0.172
4/28/2023 15:32:11.650,-0.871,0.543,0.359
4/28/2023 15:32:11.660,-0.902,0.313,0.32
4/28/2023 15:32:11.670,-0.965,0.242,0.109
4/28/2023 15:32:11.680,-0.98,0.203,-0.016
4/28/2023 15:32:11.690,-1.027,0.164,-0.031
4/28/2023 15:32:11.700,-1.059,0.141,-0.027
4/28/2023 15:32:11.710,-1.074,0.125,-0.078
4/28/2023 15:32:11.720,-1.102,0.094,-0.25
4/28/2023 15:32:11.730,-1.16,0.039,-0.309
4/28/2023 15:32:11.740,-1.164,-0.012,-0.199
4/28/2023 15:32:11.750,-1.129,0.004,-0.113
4/28/2023 15:32:11.760,-1.148,0.012,-0.07
4/28/2023 15:32:11.770,-1.258,-0.016,-0.031
4/28/2023 15:32:11.780,-1.316,-0.07,-0.016
4/28/2023 15:32:11.790,-1.277,-0.164,-0.02
4/28/2023 15:32:11.800,-1.188,-0.277,-0.059
4/28/2023 15:32:11.810,-1.066,-0.43,-0.152
4/28/2023 15:32:11.820,-0.887,-0.594,-0.285
4/28/2023 15:32:11.830,-0.762,-0.641,-0.461
4/28/2023 15:32:11.840,-0.723,-0.535,-0.621
4/28/2023 15:32:11.850,-0.77,-0.336,-0.656
4/28/2023 15:32:11.860,-0.836,-0.082,-0.574
4/28/2023 15:32:11.870,-0.938,0.156,-0.461
4/28/2023 15:32:11.880,-1.027,0.27,-0.332
4/28/2023 15:32:11.890,-1.082,0.27,-0.172
4/28/2023 15:32:11.900,-1.121,0.195,-0.035
4/28/2023 15:32:11.910,-1.172,0.09,0.09
4/28/2023 15:32:11.920,-1.207,-0.004,0.141
4/28/2023 15:32:11.930,-1.246,-0.113,0.094
4/28/2023 15:32:11.940,-1.285,-0.238,0.012
4/28/2023 15:32:11.950,-1.348,-0.309,-0.066
4/28/2023 15:32:11.960,-1.41,-0.352,-0.152
4/28/2023 15:32:11.970,-1.48,-0.355,-0.219
4/28/2023 15:32:11.980,-1.504,-0.332,-0.238
4/28/2023 15:32:11.990,-1.52,-0.289,-0.172
4/28/2023 15:32:12.000,-1.551,-0.277,-0.07
4/28/2023 15:32:12.010,-1.617,-0.359,0.039
4/28/2023 15:32:12.020,-1.723,-0.504,0.027
4/28/2023 15:32:12.030,-1.797,-0.637,-0.082
4/28/2023 15:32:12.040,-1.871,-0.77,-0.23
4/28/2023 15:32:12.050,-1.992,-0.988,-0.297
4/28/2023 15:32:12.060,-2.137,-1.367,-0.414
4/28/2023 15:32:12.070,-2.133,-1.652,-0.594
4/28/2023 15:32:12.080,-2.367,-1.227,-0.68
4/28/2023 15:32:12.090,-2.918,-0.262,-0.734
4/28/2023 15:32:12.100,-2.895,0.418,-0.742
4/28/2023 15:32:12.110,-2.527,0.719,-0.637
4/28/2023 15:32:12.120,-2.344,0.453,-0.785
4/28/2023 15:32:12.130,-2.074,-0.273,-1.188
4/28/2023 15:32:12.140,-0.918,-0.898,-0.777
4/28/2023 15:32:12.150,-1.629,-0.367,-0.465
4/28/2023 15:32:12.160,-1.422,0.891,-0.371
4/28/2023 15:32:12.170,-1.164,0.563,-0.336
4/28/2023 15:32:12.180,-0.922,-0.301,-0.242
4/28/2023 15:32:12.190,-0.652,-0.555,-0.234
4/28/2023 15:32:12.200,-0.398,-0.477,-0.133
4/28/2023 15:32:12.210,-0.152,-0.313,-0.016
4/28/2023 15:32:12.220,-0.035,-0.25,0.027
4/28/2023 15:32:12.230,-0.02,-0.211,0.031
4/28/2023 15:32:12.240,-0.059,-0.129,-0.02
4/28/2023 15:32:12.250,-0.047,-0.07,-0.078
4/28/2023 15:32:12.260,-0.055,-0.105,-0.086
4/28/2023 15:32:12.270,-0.102,-0.191,-0.074
4/28/2023 15:32:12.280,-0.172,-0.25,-0.07
4/28/2023 15:32:12.290,-0.254,-0.246,-0.086
4/28/2023 15:32:12.300,-0.344,-0.203,-0.109
4/28/2023 15:32:12.310,-0.406,-0.152,-0.137
4/28/2023 15:32:12.320,-0.461,-0.121,-0.141
4/28/2023 15:32:12.330,-0.508,-0.129,-0.152
4/28/2023 15:32:12.340,-0.551,-0.156,-0.141
4/28/2023 15:32:12.350,-0.621,-0.188,-0.105
4/28/2023 15:32:12.360,-0.711,-0.191,-0.066
4/28/2023 15:32:12.370,-0.836,-0.164,-0.059
4/28/2023 15:32:12.380,-0.996,-0.156,-0.063
4/28/2023 15:32:12.390,-1.191,-0.184,-0.063
4/28/2023 15:32:12.400,-1.473,-0.164,-0.074
4/28/2023 15:32:12.410,-1.82,-0.082,-0.117
4/28/2023 15:32:12.420,-2.148,0.051,-0.137
4/28/2023 15:32:12.430,-2.43,0.273,-0.137
4/28/2023 15:32:12.440,-2.793,0.566,-0.141
4/28/2023 15:32:12.450,-3.129,0.82,-0.188
4/28/2023 15:32:12.460,-2.945,0.883,-0.137
4/28/2023 15:32:12.470,-2.648,0.953,-0.367
4/28/2023 15:32:12.480,-2.539,1.465,-0.902
4/28/2023 15:32:12.490,-2.441,2.887,-0.43
4/28/2023 15:32:12.500,-2.074,3.289,0.547
4/28/2023 15:32:12.510,-2.086,2.801,0.695
4/28/2023 15:32:12.520,-2.039,2.41,0.523
4/28/2023 15:32:12.530,-1.836,1.969,0.316
4/28/2023 15:32:12.540,-1.758,1.605,0.473
4/28/2023 15:32:12.550,-1.938,1.098,0.074
4/28/2023 15:32:12.560,-1.703,-0.961,-0.633
4/28/2023 15:32:12.570,-2.379,-4.172,0.773
4/28/2023 15:32:12.580,-2.223,-1.691,1.906
4/28/2023 15:32:12.590,-2.184,0.871,1.176
4/28/2023 15:32:12.600,-2.328,1.652,-0.262
4/28/2023 15:32:12.610,-1.934,0.84,-0.82
4/28/2023 15:32:12.620,-0.719,0.281,-0.398
4/28/2023 15:32:12.630,-0.238,0.324,-0.16
4/28/2023 15:32:12.640,-0.32,0.621,-0.594
4/28/2023 15:32:12.650,-1.105,1.238,-0.922
4/28/2023 15:32:12.660,-1.613,1.516,-0.652
4/28/2023 15:32:12.670,-1.156,1.074,-0.086
4/28/2023 15:32:12.680,-0.895,0.703,-0.031
4/28/2023 15:32:12.690,-0.949,0.508,-0.125
4/28/2023 15:32:12.700,-1.008,0.355,-0.074
4/28/2023 15:32:12.710,-0.941,0.332,0.141
4/28/2023 15:32:12.720,-0.906,0.316,0.176
4/28/2023 15:32:12.730,-0.945,0.246,0.098
4/28/2023 15:32:12.740,-0.965,0.156,-0.012
4/28/2023 15:32:12.750,-0.957,0.047,-0.008
4/28/2023 15:32:12.760,-0.973,-0.047,-0.098
4/28/2023 15:32:12.770,-1.051,-0.109,-0.301
4/28/2023 15:32:12.780,-1.07,-0.148,-0.422
4/28/2023 15:32:12.790,-1.047,-0.113,-0.438
4/28/2023 15:32:12.800,-1.039,-0.086,-0.453
4/28/2023 15:32:12.810,-1.051,-0.109,-0.43
4/28/2023 15:32:12.820,-1.016,-0.105,-0.281
4/28/2023 15:32:12.830,-1.016,-0.098,-0.148
4/28/2023 15:32:12.840,-1.098,-0.109,-0.125
4/28/2023 15:32:12.850,-1.16,-0.063,-0.102
4/28/2023 15:32:12.860,-1.152,-0.063,-0.133
4/28/2023 15:32:12.870,-1.141,-0.133,-0.215
4/28/2023 15:32:12.880,-1.086,-0.285,-0.305
4/28/2023 15:32:12.890,-1.012,-0.426,-0.414
4/28/2023 15:32:12.900,-0.949,-0.496,-0.52
4/28/2023 15:32:12.910,-0.91,-0.453,-0.586
4/28/2023 15:32:12.920,-0.938,-0.313,-0.582
4/28/2023 15:32:12.930,-1.02,-0.145,-0.477
4/28/2023 15:32:12.940,-1.133,0.004,-0.363
4/28/2023 15:32:12.950,-1.219,0.051,-0.258
4/28/2023 15:32:12.960,-1.254,0.012,-0.148
4/28/2023 15:32:12.970,-1.277,-0.035,-0.047
4/28/2023 15:32:12.980,-1.285,-0.113,0.008
4/28/2023 15:32:12.990,-1.285,-0.191,0.035
4/28/2023 15:32:13.000,-1.297,-0.238,0.07
4/28/2023 15:32:13.010,-1.359,-0.254,0.063
4/28/2023 15:32:13.020,-1.445,-0.258,-0.008
4/28/2023 15:32:13.030,-1.535,-0.289,-0.102
4/28/2023 15:32:13.040,-1.582,-0.281,-0.137
4/28/2023 15:32:13.050,-1.57,-0.25,-0.082
4/28/2023 15:32:13.060,-1.547,-0.23,-0.063
4/28/2023 15:32:13.070,-1.582,-0.285,-0.094
4/28/2023 15:32:13.080,-1.637,-0.398,-0.234
4/28/2023 15:32:13.090,-1.66,-0.512,-0.355
4/28/2023 15:32:13.100,-1.652,-0.57,-0.379
4/28/2023 15:32:13.110,-1.691,-0.691,-0.363
4/28/2023 15:32:13.120,-1.813,-1.031,-0.465
4/28/2023 15:32:13.130,-1.887,-1.492,-0.59
4/28/2023 15:32:13.140,-1.973,-1.438,-0.586
4/28/2023 15:32:13.150,-2.391,-0.406,-0.512
4/28/2023 15:32:13.160,-2.492,0.566,-0.395
4/28/2023 15:32:13.170,-2.195,0.645,-0.379
4/28/2023 15:32:13.180,-2.152,0.469,-0.441
4/28/2023 15:32:13.190,-1.91,0.09,-0.742
4/28/2023 15:32:13.200,-1.477,-0.387,-0.914
4/28/2023 15:32:13.210,-0.902,-0.586,-0.723
4/28/2023 15:32:13.220,-1.727,-0.102,-0.375
4/28/2023 15:32:13.230,-1.195,0.707,-0.207
4/28/2023 15:32:13.240,-0.965,0.336,-0.207
4/28/2023 15:32:13.250,-0.75,-0.352,-0.07
4/28/2023 15:32:13.260,-0.531,-0.559,-0.02
4/28/2023 15:32:13.270,-0.367,-0.523,0.023
4/28/2023 15:32:13.280,-0.195,-0.363,0.125
4/28/2023 15:32:13.290,-0.063,-0.223,0.164
4/28/2023 15:32:13.300,-0.031,-0.145,0.18
4/28/2023 15:32:13.310,-0.039,-0.129,0.172
4/28/2023 15:32:13.320,-0.09,-0.145,0.137
4/28/2023 15:32:13.330,-0.102,-0.188,0.105
4/28/2023 15:32:13.340,-0.141,-0.281,0.125
4/28/2023 15:32:13.350,-0.207,-0.352,0.117
4/28/2023 15:32:13.360,-0.289,-0.344,0.07
4/28/2023 15:32:13.370,-0.352,-0.281,0.02
4/28/2023 15:32:13.380,-0.387,-0.227,-0.004
4/28/2023 15:32:13.390,-0.449,-0.172,0.008
4/28/2023 15:32:13.400,-0.523,-0.141,0.016
4/28/2023 15:32:13.410,-0.578,-0.125,0.008
4/28/2023 15:32:13.420,-0.645,-0.141,-0.012
4/28/2023 15:32:13.430,-0.734,-0.172,-0.012
4/28/2023 15:32:13.440,-0.828,-0.176,-0.012
4/28/2023 15:32:13.450,-0.957,-0.172,-0.016
4/28/2023 15:32:13.460,-1.109,-0.176,-0.008
4/28/2023 15:32:13.470,-1.316,-0.152,-0.023
4/28/2023 15:32:13.480,-1.613,-0.121,-0.086
4/28/2023 15:32:13.490,-1.918,-0.074,-0.141
4/28/2023 15:32:13.500,-2.16,0.055,-0.172
4/28/2023 15:32:13.510,-2.379,0.273,-0.211
4/28/2023 15:32:13.520,-2.586,0.473,-0.254
4/28/2023 15:32:13.530,-2.703,0.582,-0.301
4/28/2023 15:32:13.540,-2.598,0.633,-0.414
4/28/2023 15:32:13.550,-2.465,1.078,-0.695
4/28/2023 15:32:13.560,-2.418,1.934,-0.746
4/28/2023 15:32:13.570,-2.16,2.734,-0.012
4/28/2023 15:32:13.580,-2.023,2.68,0.5
4/28/2023 15:32:13.590,-2.012,2.566,0.605
4/28/2023 15:32:13.600,-1.867,2.379,0.438
4/28/2023 15:32:13.610,-1.758,2.023,0.441
4/28/2023 15:32:13.620,-1.879,1.555,0.219
4/28/2023 15:32:13.630,-1.426,0.816,-0.555
4/28/2023 15:32:13.640,-1.711,-2.34,-0.652
4/28/2023 15:32:13.650,-2.434,-2.527,1.246
4/28/2023 15:32:13.660,-2.758,-0.082,1.398
4/28/2023 15:32:13.670,-2.668,1.48,0.191
4/28/2023 15:32:13.680,-2.297,1.297,-0.668
4/28/2023 15:32:13.690,-1.141,0.402,-0.461
4/28/2023 15:32:13.700,-0.223,0.141,-0.121
4/28/2023 15:32:13.710,-0.09,0.273,-0.449
4/28/2023 15:32:13.720,-0.734,0.992,-0.641
4/28/2023 15:32:13.730,-1.398,1.559,-0.398
4/28/2023 15:32:13.740,-1.172,1.012,-0.09
4/28/2023 15:32:13.750,-1.055,0.707,-0.055
4/28/2023 15:32:13.760,-0.957,0.547,0.063
4/28/2023 15:32:13.770,-0.895,0.297,0.25
4/28/2023 15:32:13.780,-0.914,0.25,0.215
4/28/2023 15:32:13.790,-0.988,0.234,0.02
4/28/2023 15:32:13.800,-1.012,0.148,-0.098
4/28/2023 15:32:13.810,-1.039,0.125,-0.141
4/28/2023 15:32:13.820,-1.027,0.098,-0.164
4/28/2023 15:32:13.830,-1.047,0.023,-0.375
4/28/2023 15:32:13.840,-1.086,0.008,-0.43
4/28/2023 15:32:13.850,-1.066,0.008,-0.297
4/28/2023 15:32:13.860,-1.055,0,-0.191
4/28/2023 15:32:13.870,-1.082,-0.035,-0.117
4/28/2023 15:32:13.880,-1.121,-0.082,-0.047
4/28/2023 15:32:13.890,-1.148,-0.09,-0.078
4/28/2023 15:32:13.900,-1.156,-0.098,-0.195
4/28/2023 15:32:13.910,-1.156,-0.137,-0.305
4/28/2023 15:32:13.920,-1.125,-0.168,-0.355
4/28/2023 15:32:13.930,-1.063,-0.238,-0.336
4/28/2023 15:32:13.940,-1,-0.32,-0.27
4/28/2023 15:32:13.950,-0.973,-0.398,-0.238
4/28/2023 15:32:13.960,-0.996,-0.414,-0.25
4/28/2023 15:32:13.970,-1.016,-0.332,-0.246
4/28/2023 15:32:13.980,-1.055,-0.18,-0.242
4/28/2023 15:32:13.990,-1.102,-0.063,-0.25
4/28/2023 15:32:14.000,-1.152,0,-0.242
4/28/2023 15:32:14.010,-1.207,0.035,-0.191
4/28/2023 15:32:14.020,-1.258,0.004,-0.125
4/28/2023 15:32:14.030,-1.32,0.012,-0.105
4/28/2023 15:32:14.040,-1.34,0.02,-0.059
4/28/2023 15:32:14.050,-1.328,-0.066,-0.008
4/28/2023 15:32:14.060,-1.289,-0.223,0.02
4/28/2023 15:32:14.070,-1.316,-0.34,-0.016
4/28/2023 15:32:14.080,-1.406,-0.363,-0.105
4/28/2023 15:32:14.090,-1.496,-0.336,-0.176
4/28/2023 15:32:14.100,-1.582,-0.316,-0.145
4/28/2023 15:32:14.110,-1.645,-0.328,-0.063
4/28/2023 15:32:14.120,-1.695,-0.418,-0.012
4/28/2023 15:32:14.130,-1.723,-0.578,-0.07
4/28/2023 15:32:14.140,-1.738,-0.727,-0.219
4/28/2023 15:32:14.150,-1.734,-0.883,-0.324
4/28/2023 15:32:14.160,-1.77,-1.113,-0.359
4/28/2023 15:32:14.170,-1.852,-1.414,-0.5
4/28/2023 15:32:14.180,-1.973,-1.297,-0.602
4/28/2023 15:32:14.190,-2.586,-0.465,-0.637
4/28/2023 15:32:14.200,-2.891,0.168,-0.656
4/28/2023 15:32:14.210,-2.672,0.148,-0.594
4/28/2023 15:32:14.220,-2.465,0.176,-0.547
4/28/2023 15:32:14.230,-2.227,0.125,-0.785
4/28/2023 15:32:14.240,-1.859,-0.363,-1.047
4/28/2023 15:32:14.250,-0.938,-0.625,-0.766
4/28/2023 15:32:14.260,-1.887,-0.105,-0.258
4/28/2023 15:32:14.270,-1.379,0.98,-0.156
4/28/2023 15:32:14.280,-1.125,0.457,-0.199
4/28/2023 15:32:14.290,-0.82,-0.305,-0.172
4/28/2023 15:32:14.300,-0.547,-0.449,-0.18
4/28/2023 15:32:14.310,-0.344,-0.359,-0.008
4/28/2023 15:32:14.320,-0.188,-0.246,0.086
4/28/2023 15:32:14.330,-0.09,-0.172,0.09
4/28/2023 15:32:14.340,-0.059,-0.113,0.051
4/28/2023 15:32:14.350,-0.031,-0.051,0.008
4/28/2023 15:32:14.360,-0.051,-0.059,-0.02
4/28/2023 15:32:14.370,-0.078,-0.137,-0.004
4/28/2023 15:32:14.380,-0.098,-0.238,0.031
4/28/2023 15:32:14.390,-0.145,-0.285,0.059
4/28/2023 15:32:14.400,-0.215,-0.281,0.051
4/28/2023 15:32:14.410,-0.285,-0.254,0.043
4/28/2023 15:32:14.420,-0.348,-0.23,0.031
4/28/2023 15:32:14.430,-0.375,-0.223,0.027
4/28/2023 15:32:14.440,-0.391,-0.207,0.035
4/28/2023 15:32:14.450,-0.422,-0.191,0.027
4/28/2023 15:32:14.460,-0.469,-0.168,0.02
4/28/2023 15:32:14.470,-0.512,-0.164,0.023
4/28/2023 15:32:14.480,-0.59,-0.156,0.016
4/28/2023 15:32:14.490,-0.707,-0.137,0.004
4/28/2023 15:32:14.500,-0.875,-0.086,-0.012
4/28/2023 15:32:14.510,-1.098,-0.063,-0.008
4/28/2023 15:32:14.520,-1.375,-0.082,-0.008
4/28/2023 15:32:14.530,-1.668,-0.07,-0.027
4/28/2023 15:32:14.540,-1.918,0.016,-0.031
4/28/2023 15:32:14.550,-2.223,0.164,-0.066
4/28/2023 15:32:14.560,-2.652,0.398,-0.133
4/28/2023 15:32:14.570,-3.094,0.723,-0.27
4/28/2023 15:32:14.580,-3.066,0.91,-0.387
4/28/2023 15:32:14.590,-2.727,1.012,-0.305
4/28/2023 15:32:14.600,-2.605,1.754,-0.598
4/28/2023 15:32:14.610,-2.34,2.625,-0.258
4/28/2023 15:32:14.620,-2.047,2.965,0.273
4/28/2023 15:32:14.630,-2.059,2.867,0.387
4/28/2023 15:32:14.640,-2.02,2.629,0.285
4/28/2023 15:32:14.650,-1.824,2.133,0.293
4/28/2023 15:32:14.660,-1.777,1.672,0.371
4/28/2023 15:32:14.670,-1.691,0.996,-0.215
4/28/2023 15:32:14.680,-1.453,-1.27,-1.02
4/28/2023 15:32:14.690,-2.078,-3.879,0.18
4/28/2023 15:32:14.700,-2.152,-1.738,1.508
4/28/2023 15:32:14.710,-2.305,0.727,1.18
4/28/2023 15:32:14.720,-2.293,1.547,0.078
4/28/2023 15:32:14.730,-2.063,0.961,-0.391
4/28/2023 15:32:14.740,-0.945,0.195,-0.168
4/28/2023 15:32:14.750,-0.203,0.063,-0.07
4/28/2023 15:32:14.760,-0.219,0.422,-0.469
4/28/2023 15:32:14.770,-1.027,1.047,-0.758
4/28/2023 15:32:14.780,-1.492,1.379,-0.422
4/28/2023 15:32:14.790,-1.059,0.813,-0.059
4/28/2023 15:32:14.800,-1,0.523,-0.125
4/28/2023 15:32:14.810,-1,0.48,-0.059
4/28/2023 15:32:14.820,-0.902,0.414,0.172
4/28/2023 15:32:14.830,-0.891,0.348,0.289
4/28/2023 15:32:14.840,-0.953,0.34,0.164
4/28/2023 15:32:14.850,-1.004,0.352,0.023
4/28/2023 15:32:14.860,-1.02,0.316,0.043
4/28/2023 15:32:14.870,-1.02,0.277,0.086
4/28/2023 15:32:14.880,-1.055,0.223,-0.004
4/28/2023 15:32:14.890,-1.117,0.125,-0.207
4/28/2023 15:32:14.900,-1.137,0.051,-0.199
4/28/2023 15:32:14.910,-1.117,0.016,-0.141
4/28/2023 15:32:14.920,-1.105,-0.008,-0.113
4/28/2023 15:32:14.930,-1.121,-0.063,-0.094
4/28/2023 15:32:14.940,-1.184,-0.121,-0.066
4/28/2023 15:32:14.950,-1.223,-0.121,-0.078
4/28/2023 15:32:14.960,-1.199,-0.109,-0.113
4/28/2023 15:32:14.970,-1.191,-0.098,-0.188
4/28/2023 15:32:14.980,-1.129,-0.09,-0.281
4/28/2023 15:32:14.990,-1.016,-0.094,-0.355
4/28/2023 15:32:15.000,-0.922,-0.137,-0.406
4/28/2023 15:32:15.010,-0.867,-0.223,-0.426
4/28/2023 15:32:15.020,-0.824,-0.332,-0.453
4/28/2023 15:32:15.030,-0.832,-0.395,-0.469
4/28/2023 15:32:15.040,-0.891,-0.324,-0.473
4/28/2023 15:32:15.050,-0.973,-0.18,-0.422
4/28/2023 15:32:15.060,-1.07,-0.051,-0.34
4/28/2023 15:32:15.070,-1.152,0.031,-0.25
4/28/2023 15:32:15.080,-1.184,0.059,-0.141
4/28/2023 15:32:15.090,-1.203,0.023,-0.016
4/28/2023 15:32:15.100,-1.25,-0.016,0.078
4/28/2023 15:32:15.110,-1.309,-0.098,0.152
4/28/2023 15:32:15.120,-1.352,-0.195,0.18
4/28/2023 15:32:15.130,-1.383,-0.324,0.148
4/28/2023 15:32:15.140,-1.43,-0.414,0.074
4/28/2023 15:32:15.150,-1.477,-0.438,-0.027
4/28/2023 15:32:15.160,-1.504,-0.406,-0.09
4/28/2023 15:32:15.170,-1.531,-0.332,-0.055
4/28/2023 15:32:15.180,-1.566,-0.27,-0.027
4/28/2023 15:32:15.190,-1.637,-0.281,-0.129
4/28/2023 15:32:15.200,-1.715,-0.371,-0.309
4/28/2023 15:32:15.210,-1.777,-0.469,-0.453
4/28/2023 15:32:15.220,-1.836,-0.598,-0.465
4/28/2023 15:32:15.230,-1.906,-0.883,-0.406
4/28/2023 15:32:15.240,-2.063,-1.332,-0.453
4/28/2023 15:32:15.250,-2.188,-1.66,-0.547
4/28/2023 15:32:15.260,-2.438,-1.148,-0.547
4/28/2023 15:32:15.270,-2.809,-0.012,-0.559
4/28/2023 15:32:15.280,-2.59,0.648,-0.605
4/28/2023 15:32:15.290,-2.344,0.695,-0.688
4/28/2023 15:32:15.300,-2.293,0.289,-0.859
4/28/2023 15:32:15.310,-1.961,-0.426,-1.094
4/28/2023 15:32:15.320,-0.801,-0.738,-0.965
4/28/2023 15:32:15.330,-1.617,-0.32,-0.602
4/28/2023 15:32:15.340,-1.598,0.766,-0.355
4/28/2023 15:32:15.350,-0.996,0.66,-0.313
4/28/2023 15:32:15.360,-0.828,-0.293,-0.27
4/28/2023 15:32:15.370,-0.566,-0.602,-0.273
4/28/2023 15:32:15.380,-0.328,-0.594,-0.121
4/28/2023 15:32:15.390,-0.18,-0.527,0.055
4/28/2023 15:32:15.400,-0.043,-0.441,0.09
4/28/2023 15:32:15.410,-0.004,-0.375,0.086
4/28/2023 15:32:15.420,-0.047,-0.27,0.031
4/28/2023 15:32:15.430,-0.078,-0.195,-0.012
4/28/2023 15:32:15.440,-0.098,-0.191,-0.031
4/28/2023 15:32:15.450,-0.121,-0.246,-0.035
4/28/2023 15:32:15.460,-0.164,-0.305,-0.047
4/28/2023 15:32:15.470,-0.25,-0.316,-0.086
4/28/2023 15:32:15.480,-0.328,-0.297,-0.129
4/28/2023 15:32:15.490,-0.363,-0.25,-0.176
4/28/2023 15:32:15.500,-0.41,-0.176,-0.223
4/28/2023 15:32:15.510,-0.445,-0.125,-0.246
4/28/2023 15:32:15.520,-0.504,-0.09,-0.25
4/28/2023 15:32:15.530,-0.602,-0.082,-0.23
4/28/2023 15:32:15.540,-0.723,-0.09,-0.211
4/28/2023 15:32:15.550,-0.883,-0.102,-0.191
4/28/2023 15:32:15.560,-1.109,-0.109,-0.191
4/28/2023 15:32:15.570,-1.438,-0.137,-0.211
4/28/2023 15:32:15.580,-1.863,-0.152,-0.277
4/28/2023 15:32:15.590,-2.246,-0.059,-0.355
4/28/2023 15:32:15.600,-2.551,0.137,-0.465
4/28/2023 15:32:15.610,-2.91,0.344,-0.598
4/28/2023 15:32:15.620,-3.289,0.672,-0.891
4/28/2023 15:32:15.630,-3.215,1.344,-1.113
4/28/2023 15:32:15.640,-2.875,1.961,-0.863
4/28/2023 15:32:15.650,-2.652,2.332,-0.711
4/28/2023 15:32:15.660,-2.445,2.664,0.184
4/28/2023 15:32:15.670,-2.039,2.566,0.953
4/28/2023 15:32:15.680,-1.855,2.164,0.66
4/28/2023 15:32:15.690,-1.988,1.891,0.309
4/28/2023 15:32:15.700,-1.918,1.777,0.52
4/28/2023 15:32:15.710,-1.773,1.695,0.633
4/28/2023 15:32:15.720,-1.797,1.477,0.48
4/28/2023 15:32:15.730,-1.699,0.754,0.121
4/28/2023 15:32:15.740,-1.832,-1.844,-0.031
4/28/2023 15:32:15.750,-2.223,-3.586,1.215
4/28/2023 15:32:15.760,-1.945,-1.328,1.457
4/28/2023 15:32:15.770,-1.875,0.98,0.777
4/28/2023 15:32:15.780,-1.652,1.75,-0.059
4/28/2023 15:32:15.790,-1.359,0.977,-0.473
4/28/2023 15:32:15.800,-0.734,0.285,-0.488
4/28/2023 15:32:15.810,-0.559,0.285,-0.672
4/28/2023 15:32:15.820,-1.105,0.734,-0.766
4/28/2023 15:32:15.830,-1.371,1.375,-0.332
4/28/2023 15:32:15.840,-1.125,1.297,-0.18
4/28/2023 15:32:15.850,-1.008,0.898,-0.141
4/28/2023 15:32:15.860,-0.984,0.707,-0.121
4/28/2023 15:32:15.870,-0.91,0.477,0.098
4/28/2023 15:32:15.880,-0.852,0.313,0.363
4/28/2023 15:32:15.890,-0.91,0.34,0.379
4/28/2023 15:32:15.900,-0.969,0.348,0.238
4/28/2023 15:32:15.910,-0.992,0.309,0.063
4/28/2023 15:32:15.920,-1.035,0.301,-0.035
4/28/2023 15:32:15.930,-1.051,0.258,-0.047
4/28/2023 15:32:15.940,-1.063,0.141,0.031
4/28/2023 15:32:15.950,-1.086,0.035,-0.082
4/28/2023 15:32:15.960,-1.145,-0.012,-0.23
4/28/2023 15:32:15.970,-1.16,-0.02,-0.199
4/28/2023 15:32:15.980,-1.145,-0.008,-0.148
4/28/2023 15:32:15.990,-1.129,-0.031,-0.129
4/28/2023 15:32:16.000,-1.148,-0.094,-0.113
4/28/2023 15:32:16.010,-1.156,-0.164,-0.105
4/28/2023 15:32:16.020,-1.152,-0.137,-0.137
4/28/2023 15:32:16.030,-1.121,-0.098,-0.199
4/28/2023 15:32:16.040,-1.121,-0.133,-0.199
4/28/2023 15:32:16.050,-1.039,-0.195,-0.152
4/28/2023 15:32:16.060,-0.98,-0.316,-0.102
4/28/2023 15:32:16.070,-0.926,-0.465,-0.102
4/28/2023 15:32:16.080,-0.906,-0.508,-0.137
4/28/2023 15:32:16.090,-0.965,-0.41,-0.164
4/28/2023 15:32:16.100,-1.082,-0.223,-0.16
4/28/2023 15:32:16.110,-1.23,-0.098,-0.152
4/28/2023 15:32:16.120,-1.336,-0.078,-0.098
4/28/2023 15:32:16.130,-1.402,-0.063,-0.027
4/28/2023 15:32:16.140,-1.434,-0.102,0.004
4/28/2023 15:32:16.150,-1.422,-0.211,0.02
4/28/2023 15:32:16.160,-1.379,-0.301,0.02
4/28/2023 15:32:16.170,-1.328,-0.34,-0.02
4/28/2023 15:32:16.180,-1.324,-0.375,-0.125
4/28/2023 15:32:16.190,-1.367,-0.371,-0.18
4/28/2023 15:32:16.200,-1.465,-0.309,-0.129
4/28/2023 15:32:16.210,-1.594,-0.293,0
4/28/2023 15:32:16.220,-1.695,-0.375,0.047
4/28/2023 15:32:16.230,-1.73,-0.512,0.008
4/28/2023 15:32:16.240,-1.727,-0.613,-0.176
4/28/2023 15:32:16.250,-1.684,-0.766,-0.328
4/28/2023 15:32:16.260,-1.648,-1.02,-0.449
4/28/2023 15:32:16.270,-1.637,-1.277,-0.508
4/28/2023 15:32:16.280,-1.801,-1.438,-0.605
4/28/2023 15:32:16.290,-2.313,-1.141,-0.672
4/28/2023 15:32:16.300,-2.754,-0.125,-0.707
4/28/2023 15:32:16.310,-2.641,0.68,-0.688
4/28/2023 15:32:16.320,-2.5,0.539,-0.648
4/28/2023 15:32:16.330,-2.359,0.125,-0.969
4/28/2023 15:32:16.340,-1.898,-0.098,-1.16
4/28/2023 15:32:16.350,-0.73,-0.574,-0.637
4/28/2023 15:32:16.360,-1.848,-0.359,-0.328
4/28/2023 15:32:16.370,-1.422,0.879,-0.211
4/28/2023 15:32:16.380,-1.133,0.496,-0.234
4/28/2023 15:32:16.390,-0.938,-0.133,-0.305
4/28/2023 15:32:16.400,-0.719,-0.328,-0.258
4/28/2023 15:32:16.410,-0.516,-0.313,-0.145
4/28/2023 15:32:16.420,-0.375,-0.211,-0.086
4/28/2023 15:32:16.430,-0.254,-0.086,-0.094
4/28/2023 15:32:16.440,-0.145,0.008,-0.113
4/28/2023 15:32:16.450,-0.121,0.043,-0.125
4/28/2023 15:32:16.460,-0.102,0.008,-0.141
4/28/2023 15:32:16.470,-0.109,-0.055,-0.121
4/28/2023 15:32:16.480,-0.148,-0.098,-0.078
4/28/2023 15:32:16.490,-0.203,-0.113,-0.063
4/28/2023 15:32:16.500,-0.258,-0.09,-0.074
4/28/2023 15:32:16.510,-0.309,-0.082,-0.105
4/28/2023 15:32:16.520,-0.359,-0.082,-0.145
4/28/2023 15:32:16.530,-0.422,-0.102,-0.18
4/28/2023 15:32:16.540,-0.453,-0.121,-0.184
4/28/2023 15:32:16.550,-0.477,-0.133,-0.18
4/28/2023 15:32:16.560,-0.516,-0.133,-0.164
4/28/2023 15:32:16.570,-0.566,-0.121,-0.137
4/28/2023 15:32:16.580,-0.629,-0.109,-0.117
4/28/2023 15:32:16.590,-0.727,-0.105,-0.102
4/28/2023 15:32:16.600,-0.906,-0.098,-0.098
4/28/2023 15:32:16.610,-1.176,-0.059,-0.09
4/28/2023 15:32:16.620,-1.5,-0.051,-0.086
4/28/2023 15:32:16.630,-1.836,-0.051,-0.105
4/28/2023 15:32:16.640,-2.121,0.02,-0.117
4/28/2023 15:32:16.650,-2.469,0.352,-0.227
4/28/2023 15:32:16.660,-2.801,0.641,-0.195
4/28/2023 15:32:16.670,-3.105,0.895,-0.203
4/28/2023 15:32:16.680,-3.055,0.953,-0.086
4/28/2023 15:32:16.690,-2.887,1.398,-0.43
4/28/2023 15:32:16.700,-2.695,2.219,-0.414
4/28/2023 15:32:16.710,-2.145,2.883,0.359
4/28/2023 15:32:16.720,-1.93,2.711,0.75
4/28/2023 15:32:16.730,-2.027,2.535,0.723
4/28/2023 15:32:16.740,-2.043,2.16,0.695
4/28/2023 15:32:16.750,-1.926,1.801,0.758
4/28/2023 15:32:16.760,-1.906,1.305,0.262
4/28/2023 15:32:16.770,-1.629,-0.129,-0.313
4/28/2023 15:32:16.780,-2.129,-3.285,-0.215
4/28/2023 15:32:16.790,-2.57,-2.645,1.934
4/28/2023 15:32:16.800,-2.445,-0.129,1.672
4/28/2023 15:32:16.810,-2.043,1.551,0.5
4/28/2023 15:32:16.820,-2.102,1.582,-0.332
4/28/2023 15:32:16.830,-1.172,0.199,-0.332
4/28/2023 15:32:16.840,0.16,-0.242,-0.102
4/28/2023 15:32:16.850,0.184,0.559,-0.613
4/28/2023 15:32:16.860,-0.945,1.488,-0.941
4/28/2023 15:32:16.870,-1.582,1.672,-0.52
4/28/2023 15:32:16.880,-1.117,0.859,-0.105
4/28/2023 15:32:16.890,-1.039,0.512,-0.137
4/28/2023 15:32:16.900,-0.988,0.449,-0.109
4/28/2023 15:32:16.910,-0.859,0.301,0.223
4/28/2023 15:32:16.920,-0.855,0.281,0.359
4/28/2023 15:32:16.930,-0.906,0.324,0.188
4/28/2023 15:32:16.940,-0.98,0.355,0.039
4/28/2023 15:32:16.950,-1.031,0.359,-0.004
4/28/2023 15:32:16.960,-1.039,0.391,-0.051
4/28/2023 15:32:16.970,-1.035,0.359,-0.059
4/28/2023 15:32:16.980,-1.086,0.262,-0.258
4/28/2023 15:32:16.990,-1.137,0.18,-0.285
4/28/2023 15:32:17.000,-1.137,0.156,-0.188
4/28/2023 15:32:17.010,-1.125,0.082,-0.164
4/28/2023 15:32:17.020,-1.148,-0.023,-0.168
4/28/2023 15:32:17.030,-1.184,-0.141,-0.141
4/28/2023 15:32:17.040,-1.258,-0.164,-0.137
4/28/2023 15:32:17.050,-1.297,-0.105,-0.141
4/28/2023 15:32:17.060,-1.289,-0.07,-0.16
4/28/2023 15:32:17.070,-1.223,-0.094,-0.25
4/28/2023 15:32:17.080,-1.105,-0.145,-0.34
4/28/2023 15:32:17.090,-0.988,-0.195,-0.395
4/28/2023 15:32:17.100,-0.891,-0.273,-0.402
4/28/2023 15:32:17.110,-0.813,-0.359,-0.402
4/28/2023 15:32:17.120,-0.746,-0.371,-0.371
4/28/2023 15:32:17.130,-0.766,-0.313,-0.367
4/28/2023 15:32:17.140,-0.824,-0.184,-0.375
4/28/2023 15:32:17.150,-0.902,-0.063,-0.355
4/28/2023 15:32:17.160,-1.008,0.027,-0.266
4/28/2023 15:32:17.170,-1.125,0.055,-0.148
4/28/2023 15:32:17.180,-1.211,0.055,-0.074
4/28/2023 15:32:17.190,-1.289,0.043,-0.066
4/28/2023 15:32:17.200,-1.34,0,-0.059
4/28/2023 15:32:17.210,-1.344,-0.063,-0.027
4/28/2023 15:32:17.220,-1.34,-0.152,0.02
4/28/2023 15:32:17.230,-1.371,-0.258,0.012
4/28/2023 15:32:17.240,-1.41,-0.344,0
4/28/2023 15:32:17.250,-1.43,-0.355,0.004
4/28/2023 15:32:17.260,-1.469,-0.309,-0.008
4/28/2023 15:32:17.270,-1.57,-0.281,-0.09
4/28/2023 15:32:17.280,-1.699,-0.32,-0.262
4/28/2023 15:32:17.290,-1.777,-0.379,-0.434
4/28/2023 15:32:17.300,-1.828,-0.449,-0.512
4/28/2023 15:32:17.310,-1.852,-0.574,-0.523
4/28/2023 15:32:17.320,-1.91,-0.781,-0.469
4/28/2023 15:32:17.330,-1.996,-1.137,-0.441
4/28/2023 15:32:17.340,-2.078,-1.422,-0.426
4/28/2023 15:32:17.350,-2.238,-1.227,-0.414
4/28/2023 15:32:17.360,-2.73,-0.402,-0.426
4/28/2023 15:32:17.370,-2.711,0.441,-0.414
4/28/2023 15:32:17.380,-2.449,0.629,-0.441
4/28/2023 15:32:17.390,-2.336,0.535,-0.477
4/28/2023 15:32:17.400,-2.094,-0.047,-0.766
4/28/2023 15:32:17.410,-1.387,-0.645,-0.918
4/28/2023 15:32:17.420,-1.051,-0.629,-0.625
4/28/2023 15:32:17.430,-1.832,0.285,-0.316
4/28/2023 15:32:17.440,-1.035,0.992,-0.242
4/28/2023 15:32:17.450,-0.867,0.156,-0.184
4/28/2023 15:32:17.460,-0.715,-0.453,-0.152
4/28/2023 15:32:17.470,-0.441,-0.586,-0.09
4/28/2023 15:32:17.480,-0.184,-0.582,0.059
4/28/2023 15:32:17.490,-0.051,-0.574,0.133
4/28/2023 15:32:17.500,0.02,-0.523,0.148
4/28/2023 15:32:17.510,0.016,-0.43,0.156
4/28/2023 15:32:17.520,-0.012,-0.328,0.125
4/28/2023 15:32:17.530,-0.055,-0.281,0.105
4/28/2023 15:32:17.540,-0.105,-0.309,0.082
4/28/2023 15:32:17.550,-0.16,-0.359,0.063
4/28/2023 15:32:17.560,-0.223,-0.383,0.035
4/28/2023 15:32:17.570,-0.309,-0.383,0.012
4/28/2023 15:32:17.580,-0.383,-0.344,0.004
4/28/2023 15:32:17.590,-0.426,-0.301,0.008
4/28/2023 15:32:17.600,-0.465,-0.246,-0.004
4/28/2023 15:32:17.610,-0.539,-0.211,-0.012
4/28/2023 15:32:17.620,-0.637,-0.203,-0.012
4/28/2023 15:32:17.630,-0.762,-0.219,0.004
4/28/2023 15:32:17.640,-0.918,-0.211,0.027
4/28/2023 15:32:17.650,-1.129,-0.148,0.047
4/28/2023 15:32:17.660,-1.383,-0.09,0.051
4/28/2023 15:32:17.670,-1.66,0,0.004
4/28/2023 15:32:17.680,-1.898,0.094,-0.012
4/28/2023 15:32:17.690,-2.145,0.176,-0.027
4/28/2023 15:32:17.700,-2.445,0.273,-0.043
4/28/2023 15:32:17.710,-2.742,0.449,-0.109
4/28/2023 15:32:17.720,-2.938,0.691,-0.25
4/28/2023 15:32:17.730,-2.969,0.84,-0.316
4/28/2023 15:32:17.740,-2.77,1.266,-0.27
4/28/2023 15:32:17.750,-2.594,2.266,-0.246
4/28/2023 15:32:17.760,-2.301,2.836,0.125
4/28/2023 15:32:17.770,-2,2.953,0.453
4/28/2023 15:32:17.780,-1.992,2.906,0.527
4/28/2023 15:32:17.790,-1.973,2.598,0.516
4/28/2023 15:32:17.800,-1.941,2.02,0.52
4/28/2023 15:32:17.810,-1.715,1.359,-0.012
4/28/2023 15:32:17.820,-1.504,-1.219,-0.789
4/28/2023 15:32:17.830,-2.34,-3.508,0.555
4/28/2023 15:32:17.840,-2.324,-1.332,1.473
4/28/2023 15:32:17.850,-2.363,1.219,1.086
4/28/2023 15:32:17.860,-2.48,2.152,-0.059
4/28/2023 15:32:17.870,-2.258,1.148,-0.41
4/28/2023 15:32:17.880,-0.848,0.117,-0.27
4/28/2023 15:32:17.890,0.168,-0.098,-0.363
4/28/2023 15:32:17.900,-0.164,0.602,-0.789
4/28/2023 15:32:17.910,-1.105,1.516,-0.668
4/28/2023 15:32:17.920,-1.254,1.242,-0.273
4/28/2023 15:32:17.930,-1.012,0.617,-0.039
4/28/2023 15:32:17.940,-1.078,0.566,0.125
4/28/2023 15:32:17.950,-0.922,0.465,0.332
4/28/2023 15:32:17.960,-0.875,0.32,0.34
4/28/2023 15:32:17.970,-0.945,0.297,0.148
4/28/2023 15:32:17.980,-1.004,0.324,0.004
4/28/2023 15:32:17.990,-1.008,0.277,0.02
4/28/2023 15:32:18.000,-1.027,0.277,0.02
4/28/2023 15:32:18.010,-1.031,0.258,-0.063
4/28/2023 15:32:18.020,-1.059,0.195,-0.297
4/28/2023 15:32:18.030,-1.082,0.145,-0.324
4/28/2023 15:32:18.040,-1.066,0.109,-0.223
4/28/2023 15:32:18.050,-1.051,0.055,-0.145
4/28/2023 15:32:18.060,-1.066,-0.039,-0.078
4/28/2023 15:32:18.070,-1.113,-0.148,-0.035
4/28/2023 15:32:18.080,-1.156,-0.172,-0.039
4/28/2023 15:32:18.090,-1.172,-0.125,-0.09
4/28/2023 15:32:18.100,-1.18,-0.082,-0.145
4/28/2023 15:32:18.110,-1.172,-0.082,-0.195
4/28/2023 15:32:18.120,-1.141,-0.098,-0.227
4/28/2023 15:32:18.130,-1.086,-0.105,-0.25
4/28/2023 15:32:18.140,-1.027,-0.121,-0.262
4/28/2023 15:32:18.150,-0.977,-0.156,-0.223
4/28/2023 15:32:18.160,-0.961,-0.16,-0.203
4/28/2023 15:32:18.170,-0.984,-0.102,-0.203
4/28/2023 15:32:18.180,-1.023,-0.078,-0.23
4/28/2023 15:32:18.190,-1.07,-0.105,-0.309
4/28/2023 15:32:18.200,-1.121,-0.129,-0.367
4/28/2023 15:32:18.210,-1.168,-0.066,-0.383
4/28/2023 15:32:18.220,-1.199,-0.008,-0.344
4/28/2023 15:32:18.230,-1.227,-0.02,-0.242
4/28/2023 15:32:18.240,-1.254,-0.063,-0.113
4/28/2023 15:32:18.250,-1.313,-0.164,-0.004
4/28/2023 15:32:18.260,-1.402,-0.254,0.051
4/28/2023 15:32:18.270,-1.469,-0.344,0.031
4/28/2023 15:32:18.280,-1.512,-0.387,0.023
4/28/2023 15:32:18.290,-1.531,-0.367,0.066
4/28/2023 15:32:18.300,-1.555,-0.324,0.098
4/28/2023 15:32:18.310,-1.637,-0.332,0.027
4/28/2023 15:32:18.320,-1.727,-0.422,-0.141
4/28/2023 15:32:18.330,-1.813,-0.531,-0.336
4/28/2023 15:32:18.340,-1.918,-0.609,-0.438
4/28/2023 15:32:18.350,-2.109,-0.844,-0.531
4/28/2023 15:32:18.360,-2.332,-1.414,-0.594
4/28/2023 15:32:18.370,-2.309,-1.797,-0.57
4/28/2023 15:32:18.380,-2.324,-1.172,-0.461
4/28/2023 15:32:18.390,-2.672,0.074,-0.527
4/28/2023 15:32:18.400,-2.445,0.793,-0.59
4/28/2023 15:32:18.410,-2.223,0.836,-0.645
4/28/2023 15:32:18.420,-2.223,0.195,-0.723
4/28/2023 15:32:18.430,-1.82,-0.344,-0.895
4/28/2023 15:32:18.440,-0.695,-0.563,-0.859
4/28/2023 15:32:18.450,-1.496,-0.32,-0.441
4/28/2023 15:32:18.460,-1.379,0.762,-0.203
4/28/2023 15:32:18.470,-0.766,0.914,-0.152
4/28/2023 15:32:18.480,-0.719,0.086,-0.105
4/28/2023 15:32:18.490,-0.539,-0.234,-0.055
4/28/2023 15:32:18.500,-0.305,-0.289,0.074
4/28/2023 15:32:18.510,-0.109,-0.23,0.18
4/28/2023 15:32:18.520,0.008,-0.176,0.199
4/28/2023 15:32:18.530,-0.008,-0.137,0.195
4/28/2023 15:32:18.540,-0.031,-0.074,0.164
4/28/2023 15:32:18.550,-0.063,-0.047,0.113
4/28/2023 15:32:18.560,-0.113,-0.078,0.086
4/28/2023 15:32:18.570,-0.141,-0.141,0.082
4/28/2023 15:32:18.580,-0.18,-0.168,0.066
4/28/2023 15:32:18.590,-0.223,-0.164,0.035
4/28/2023 15:32:18.600,-0.277,-0.156,0
4/28/2023 15:32:18.610,-0.34,-0.125,-0.035
4/28/2023 15:32:18.620,-0.367,-0.113,-0.059
4/28/2023 15:32:18.630,-0.375,-0.137,-0.074
4/28/2023 15:32:18.640,-0.406,-0.137,-0.094
4/28/2023 15:32:18.650,-0.477,-0.113,-0.105
4/28/2023 15:32:18.660,-0.582,-0.094,-0.082
4/28/2023 15:32:18.670,-0.703,-0.105,-0.031
4/28/2023 15:32:18.680,-0.852,-0.094,0.008
4/28/2023 15:32:18.690,-1.094,-0.051,0.031
4/28/2023 15:32:18.700,-1.402,-0.047,0.023
4/28/2023 15:32:18.710,-1.691,-0.059,0.039
4/28/2023 15:32:18.720,-1.914,-0.004,0.07
4/28/2023 15:32:18.730,-2.168,0.156,0.094
4/28/2023 15:32:18.740,-2.438,0.395,0.152
4/28/2023 15:32:18.750,-2.699,0.664,0.156
4/28/2023 15:32:18.760,-2.797,0.844,0.023
4/28/2023 15:32:18.770,-2.656,0.91,-0.137
4/28/2023 15:32:18.780,-2.418,1.527,-0.465
4/28/2023 15:32:18.790,-2.223,2.391,-0.484
4/28/2023 15:32:18.800,-1.934,2.875,-0.031
4/28/2023 15:32:18.810,-1.859,2.793,0.191
4/28/2023 15:32:18.820,-1.883,2.668,0.262
4/28/2023 15:32:18.830,-1.813,2.383,0.25
4/28/2023 15:32:18.840,-1.863,1.973,0.137
4/28/2023 15:32:18.850,-1.422,1.234,-0.379
4/28/2023 15:32:18.860,-1.625,-1.816,-0.594
4/28/2023 15:32:18.870,-2.355,-3.629,1.176
4/28/2023 15:32:18.880,-2.109,-1.039,1.367
4/28/2023 15:32:18.890,-2.281,1.215,0.836
4/28/2023 15:32:18.900,-2.398,1.668,0.043
4/28/2023 15:32:18.910,-1.719,0.641,-0.191
4/28/2023 15:32:18.920,-0.707,0.09,-0.176
4/28/2023 15:32:18.930,-0.332,-0.082,-0.617
4/28/2023 15:32:18.940,-0.719,0.32,-0.98
4/28/2023 15:32:18.950,-1.164,1.051,-0.641
4/28/2023 15:32:18.960,-1.164,1.039,-0.383
4/28/2023 15:32:18.970,-1.051,0.664,-0.402
4/28/2023 15:32:18.980,-1.141,0.676,-0.207
4/28/2023 15:32:18.990,-0.957,0.578,0.34
4/28/2023 15:32:19.000,-0.805,0.348,0.574
4/28/2023 15:32:19.010,-0.863,0.188,0.43
4/28/2023 15:32:19.020,-0.926,0.117,0.109
4/28/2023 15:32:19.030,-1.023,0.141,-0.023
4/28/2023 15:32:19.040,-1.059,0.203,-0.004
4/28/2023 15:32:19.050,-1.039,0.215,-0.008
4/28/2023 15:32:19.060,-1.051,0.133,-0.246
4/28/2023 15:32:19.070,-1.105,0.07,-0.422
4/28/2023 15:32:19.080,-1.082,0.063,-0.344
4/28/2023 15:32:19.090,-1.023,0.047,-0.258
4/28/2023 15:32:19.100,-1.027,-0.059,-0.188
4/28/2023 15:32:19.110,-1.082,-0.141,-0.125
4/28/2023 15:32:19.120,-1.125,-0.148,-0.105
4/28/2023 15:32:19.130,-1.125,-0.109,-0.156
4/28/2023 15:32:19.140,-1.113,-0.098,-0.215
4/28/2023 15:32:19.150,-1.117,-0.109,-0.234
4/28/2023 15:32:19.160,-1.105,-0.082,-0.234
4/28/2023 15:32:19.170,-1.094,-0.07,-0.191
4/28/2023 15:32:19.180,-1.066,-0.078,-0.172
4/28/2023 15:32:19.190,-1.055,-0.125,-0.164
4/28/2023 15:32:19.200,-1.059,-0.18,-0.137
4/28/2023 15:32:19.210,-1.086,-0.188,-0.145
4/28/2023 15:32:19.220,-1.102,-0.168,-0.172
4/28/2023 15:32:19.230,-1.121,-0.141,-0.207
4/28/2023 15:32:19.240,-1.145,-0.07,-0.234
4/28/2023 15:32:19.250,-1.164,-0.016,-0.211
4/28/2023 15:32:19.260,-1.188,-0.039,-0.18
4/28/2023 15:32:19.270,-1.191,-0.074,-0.16
4/28/2023 15:32:19.280,-1.203,-0.152,-0.117
4/28/2023 15:32:19.290,-1.258,-0.203,-0.07
4/28/2023 15:32:19.300,-1.34,-0.211,-0.051
4/28/2023 15:32:19.310,-1.426,-0.223,-0.035
4/28/2023 15:32:19.320,-1.492,-0.238,-0.004
4/28/2023 15:32:19.330,-1.516,-0.25,0.098
4/28/2023 15:32:19.340,-1.543,-0.258,0.172
4/28/2023 15:32:19.350,-1.617,-0.289,0.145
4/28/2023 15:32:19.360,-1.688,-0.371,0
4/28/2023 15:32:19.370,-1.73,-0.484,-0.195
4/28/2023 15:32:19.380,-1.781,-0.598,-0.316
4/28/2023 15:32:19.390,-1.898,-0.75,-0.438
4/28/2023 15:32:19.400,-2.137,-1.121,-0.531
4/28/2023 15:32:19.410,-2.293,-1.648,-0.633
4/28/2023 15:32:19.420,-2.203,-1.457,-0.555
4/28/2023 15:32:19.430,-2.5,-0.422,-0.637
4/28/2023 15:32:19.440,-2.492,0.629,-0.766
4/28/2023 15:32:19.450,-2.25,0.793,-0.813
4/28/2023 15:32:19.460,-2.242,0.25,-0.695
4/28/2023 15:32:19.470,-2.004,-0.164,-0.848
4/28/2023 15:32:19.480,-1.34,-0.395,-0.898
4/28/2023 15:32:19.490,-0.758,-0.715,-0.574
4/28/2023 15:32:19.500,-1.723,-0.094,-0.258
4/28/2023 15:32:19.510,-0.938,0.879,-0.227
4/28/2023 15:32:19.520,-0.699,0.434,-0.184
4/28/2023 15:32:19.530,-0.629,-0.137,-0.137
4/28/2023 15:32:19.540,-0.418,-0.281,-0.082
4/28/2023 15:32:19.550,-0.223,-0.32,0.023
4/28/2023 15:32:19.560,-0.078,-0.293,0.078
4/28/2023 15:32:19.570,-0.027,-0.246,0.121
4/28/2023 15:32:19.580,-0.055,-0.16,0.129
4/28/2023 15:32:19.590,-0.09,-0.109,0.102
4/28/2023 15:32:19.600,-0.141,-0.117,0.078
4/28/2023 15:32:19.610,-0.207,-0.176,0.074
4/28/2023 15:32:19.620,-0.254,-0.227,0.063
4/28/2023 15:32:19.630,-0.305,-0.246,0.035
4/28/2023 15:32:19.640,-0.379,-0.242,-0.004
4/28/2023 15:32:19.650,-0.445,-0.223,-0.016
4/28/2023 15:32:19.660,-0.496,-0.199,-0.031
4/28/2023 15:32:19.670,-0.543,-0.195,-0.047
4/28/2023 15:32:19.680,-0.605,-0.195,-0.063
4/28/2023 15:32:19.690,-0.691,-0.172,-0.063
4/28/2023 15:32:19.700,-0.785,-0.156,-0.047
4/28/2023 15:32:19.710,-0.906,-0.141,-0.023
4/28/2023 15:32:19.720,-1.031,-0.109,-0.016
4/28/2023 15:32:19.730,-1.195,-0.09,-0.027
4/28/2023 15:32:19.740,-1.449,-0.094,-0.047
4/28/2023 15:32:19.750,-1.723,-0.113,-0.066
4/28/2023 15:32:19.760,-1.98,0.016,-0.141
4/28/2023 15:32:19.770,-2.191,0.254,-0.176
4/28/2023 15:32:19.780,-2.402,0.488,-0.191
4/28/2023 15:32:19.790,-2.625,0.734,-0.25
4/28/2023 15:32:19.800,-2.656,0.945,-0.391
4/28/2023 15:32:19.810,-2.473,1.18,-0.488
4/28/2023 15:32:19.820,-2.438,1.902,-0.766
4/28/2023 15:32:19.830,-2.223,2.73,-0.434
4/28/2023 15:32:19.840,-1.848,3,0.117
4/28/2023 15:32:19.850,-1.805,2.824,0.371
4/28/2023 15:32:19.860,-1.805,2.684,0.441
4/28/2023 15:32:19.870,-1.656,2.316,0.434
4/28/2023 15:32:19.880,-1.723,1.922,0.309
4/28/2023 15:32:19.890,-1.41,1.328,-0.25
4/28/2023 15:32:19.900,-1.57,-2.133,-0.613
4/28/2023 15:32:19.910,-2.859,-4.176,1.797
4/28/2023 15:32:19.920,-3.004,-0.758,2.082
4/28/2023 15:32:19.930,-2.426,2.133,0.477
4/28/2023 15:32:19.940,-2.063,2.047,-0.586
4/28/2023 15:32:19.950,-0.852,0.773,-0.355
4/28/2023 15:32:19.960,-0.148,0.242,-0.137
4/28/2023 15:32:19.970,-0.352,0.523,-0.957
4/28/2023 15:32:19.980,-1.363,1.586,-1.09
4/28/2023 15:32:19.990,-1.367,1.609,-0.426
4/28/2023 15:32:20.000,-1.012,0.852,-0.066
4/28/2023 15:32:20.010,-1.047,0.578,0.07
4/28/2023 15:32:20.020,-0.887,0.355,0.309
4/28/2023 15:32:20.030,-0.902,0.23,0.438
4/28/2023 15:32:20.040,-0.953,0.242,0.273
4/28/2023 15:32:20.050,-0.973,0.254,0.078
4/28/2023 15:32:20.060,-1.027,0.211,0.07
4/28/2023 15:32:20.070,-1.051,0.133,0.063
4/28/2023 15:32:20.080,-1.098,0.051,-0.258
4/28/2023 15:32:20.090,-1.121,-0.012,-0.406
4/28/2023 15:32:20.100,-1.086,-0.02,-0.359
4/28/2023 15:32:20.110,-1.063,-0.004,-0.32
4/28/2023 15:32:20.120,-1.074,-0.055,-0.254
4/28/2023 15:32:20.130,-1.109,-0.148,-0.16
4/28/2023 15:32:20.140,-1.16,-0.152,-0.141
4/28/2023 15:32:20.150,-1.191,-0.133,-0.172
4/28/2023 15:32:20.160,-1.195,-0.109,-0.227
4/28/2023 15:32:20.170,-1.172,-0.133,-0.277
4/28/2023 15:32:20.180,-1.109,-0.145,-0.328
4/28/2023 15:32:20.190,-1.035,-0.125,-0.352
4/28/2023 15:32:20.200,-1.008,-0.152,-0.344
4/28/2023 15:32:20.210,-1.02,-0.18,-0.32
4/28/2023 15:32:20.220,-1.031,-0.18,-0.305
4/28/2023 15:32:20.230,-1.016,-0.188,-0.281
4/28/2023 15:32:20.240,-1.004,-0.18,-0.254
4/28/2023 15:32:20.250,-1.016,-0.133,-0.238
4/28/2023 15:32:20.260,-1.066,-0.082,-0.203
4/28/2023 15:32:20.270,-1.141,-0.035,-0.168
4/28/2023 15:32:20.280,-1.18,-0.063,-0.125
4/28/2023 15:32:20.290,-1.211,-0.129,-0.09
4/28/2023 15:32:20.300,-1.258,-0.152,-0.055
4/28/2023 15:32:20.310,-1.305,-0.164,-0.012
4/28/2023 15:32:20.320,-1.344,-0.18,0.047
4/28/2023 15:32:20.330,-1.422,-0.207,0.086
4/28/2023 15:32:20.340,-1.496,-0.234,0.145
4/28/2023 15:32:20.350,-1.551,-0.234,0.145
4/28/2023 15:32:20.360,-1.648,-0.273,0.086
4/28/2023 15:32:20.370,-1.719,-0.363,-0.082
4/28/2023 15:32:20.380,-1.773,-0.453,-0.25
4/28/2023 15:32:20.390,-1.844,-0.551,-0.336
4/28/2023 15:32:20.400,-1.973,-0.715,-0.398
4/28/2023 15:32:20.410,-2.207,-1.004,-0.469
4/28/2023 15:32:20.420,-2.363,-1.535,-0.59
4/28/2023 15:32:20.430,-2.285,-1.551,-0.551
4/28/2023 15:32:20.440,-2.352,-0.625,-0.629
4/28/2023 15:32:20.450,-2.477,0.387,-0.797
4/28/2023 15:32:20.460,-2.262,0.82,-0.914
4/28/2023 15:32:20.470,-2.191,0.523,-0.688
4/28/2023 15:32:20.480,-2.098,-0.066,-0.762
4/28/2023 15:32:20.490,-1.516,-0.324,-0.859
4/28/2023 15:32:20.500,-0.633,-0.617,-0.641
4/28/2023 15:32:20.510,-1.598,-0.234,-0.152
4/28/2023 15:32:20.520,-1.008,0.82,-0.031
4/28/2023 15:32:20.530,-0.719,0.605,-0.074
4/28/2023 15:32:20.540,-0.57,0.016,-0.074
4/28/2023 15:32:20.550,-0.379,-0.207,-0.066
4/28/2023 15:32:20.560,-0.176,-0.262,0.008
4/28/2023 15:32:20.570,-0.066,-0.273,0.082
4/28/2023 15:32:20.580,-0.008,-0.258,0.109
4/28/2023 15:32:20.590,-0.008,-0.23,0.141
4/28/2023 15:32:20.600,-0.035,-0.184,0.148
4/28/2023 15:32:20.610,-0.078,-0.176,0.125
4/28/2023 15:32:20.620,-0.133,-0.207,0.109
4/28/2023 15:32:20.630,-0.168,-0.238,0.086
4/28/2023 15:32:20.640,-0.199,-0.242,0.074
4/28/2023 15:32:20.650,-0.262,-0.223,0.063
4/28/2023 15:32:20.660,-0.348,-0.188,0.035
4/28/2023 15:32:20.670,-0.406,-0.148,0.027
4/28/2023 15:32:20.680,-0.453,-0.129,0.008
4/28/2023 15:32:20.690,-0.504,-0.141,0
4/28/2023 15:32:20.700,-0.563,-0.152,-0.008
4/28/2023 15:32:20.710,-0.641,-0.164,-0.004
4/28/2023 15:32:20.720,-0.738,-0.188,0.016
4/28/2023 15:32:20.730,-0.859,-0.188,0.023
4/28/2023 15:32:20.740,-1.004,-0.156,0.023
4/28/2023 15:32:20.750,-1.215,-0.09,0.012
4/28/2023 15:32:20.760,-1.488,-0.07,0.008
4/28/2023 15:32:20.770,-1.766,-0.039,-0.035
4/28/2023 15:32:20.780,-1.988,0.066,-0.055
4/28/2023 15:32:20.790,-2.215,0.211,-0.078
4/28/2023 15:32:20.800,-2.527,0.402,-0.121
4/28/2023 15:32:20.810,-2.773,0.645,-0.246
4/28/2023 15:32:20.820,-2.73,0.855,-0.43
4/28/2023 15:32:20.830,-2.5,1.16,-0.566
4/28/2023 15:32:20.840,-2.434,1.98,-0.871
4/28/2023 15:32:20.850,-2.18,2.75,-0.441
4/28/2023 15:32:20.860,-1.871,2.859,-0.07
4/28/2023 15:32:20.870,-1.898,2.711,0.102
4/28/2023 15:32:20.880,-1.855,2.602,0.223
4/28/2023 15:32:20.890,-1.703,2.223,0.352
4/28/2023 15:32:20.900,-1.629,1.926,0.383
4/28/2023 15:32:20.910,-1.613,1.41,-0.039
4/28/2023 15:32:20.920,-1.449,-0.887,-0.297
4/28/2023 15:32:20.930,-2.102,-4.926,0.496
4/28/2023 15:32:20.940,-2.043,-2.906,1.875
4/28/2023 15:32:20.950,-2.188,0.457,1.25
4/28/2023 15:32:20.960,-2.148,2.219,0.117
4/28/2023 15:32:20.970,-1.918,1.578,-0.512
4/28/2023 15:32:20.980,-0.91,0.422,-0.395
4/28/2023 15:32:20.990,-0.484,0.078,-0.551
4/28/2023 15:32:21.000,-0.656,0.426,-0.945
4/28/2023 15:32:21.010,-1.277,1.297,-0.879
4/28/2023 15:32:21.020,-1.254,1.375,-0.469
4/28/2023 15:32:21.030,-0.988,0.684,-0.164
4/28/2023 15:32:21.040,-1.066,0.504,-0.168
4/28/2023 15:32:21.050,-1.008,0.438,-0.016
4/28/2023 15:32:21.060,-0.859,0.305,0.336
4/28/2023 15:32:21.070,-0.871,0.266,0.422
4/28/2023 15:32:21.080,-0.867,0.203,0.32
4/28/2023 15:32:21.090,-0.914,0.113,0.168
4/28/2023 15:32:21.100,-1.039,0.113,-0.047
4/28/2023 15:32:21.110,-1.082,0.168,-0.109
4/28/2023 15:32:21.120,-1.035,0.105,-0.191
4/28/2023 15:32:21.130,-1.07,0.012,-0.43
4/28/2023 15:32:21.140,-1.074,-0.004,-0.449
4/28/2023 15:32:21.150,-1.031,0.027,-0.324
4/28/2023 15:32:21.160,-1.035,-0.023,-0.195
4/28/2023 15:32:21.170,-1.074,-0.102,-0.09
4/28/2023 15:32:21.180,-1.113,-0.133,-0.035
4/28/2023 15:32:21.190,-1.148,-0.094,-0.074
4/28/2023 15:32:21.200,-1.113,-0.023,-0.184
4/28/2023 15:32:21.210,-1.129,-0.031,-0.27
4/28/2023 15:32:21.220,-1.145,-0.031,-0.324
4/28/2023 15:32:21.230,-1.129,-0.059,-0.348
4/28/2023 15:32:21.240,-1.105,-0.012,-0.32
4/28/2023 15:32:21.250,-1.125,0.039,-0.254
4/28/2023 15:32:21.260,-1.156,-0.023,-0.203
4/28/2023 15:32:21.270,-1.141,-0.141,-0.18
4/28/2023 15:32:21.280,-1.102,-0.25,-0.195
4/28/2023 15:32:21.290,-1.102,-0.27,-0.207
4/28/2023 15:32:21.300,-1.133,-0.176,-0.219
4/28/2023 15:32:21.310,-1.172,-0.074,-0.234
4/28/2023 15:32:21.320,-1.199,-0.004,-0.203
4/28/2023 15:32:21.330,-1.207,-0.039,-0.133
4/28/2023 15:32:21.340,-1.207,-0.117,-0.074
4/28/2023 15:32:21.350,-1.277,-0.211,-0.051
4/28/2023 15:32:21.360,-1.371,-0.262,-0.039
4/28/2023 15:32:21.370,-1.469,-0.301,-0.035
4/28/2023 15:32:21.380,-1.523,-0.305,-0.008
4/28/2023 15:32:21.390,-1.531,-0.27,0.063
4/28/2023 15:32:21.400,-1.586,-0.242,0.07
4/28/2023 15:32:21.410,-1.641,-0.285,-0.047
4/28/2023 15:32:21.420,-1.699,-0.402,-0.25
4/28/2023 15:32:21.430,-1.75,-0.566,-0.387
4/28/2023 15:32:21.440,-1.844,-0.664,-0.434
4/28/2023 15:32:21.450,-2.047,-0.891,-0.477
4/28/2023 15:32:21.460,-2.277,-1.457,-0.566
4/28/2023 15:32:21.470,-2.258,-1.563,-0.465
4/28/2023 15:32:21.480,-2.43,-0.707,-0.457
4/28/2023 15:32:21.490,-2.586,0.348,-0.684
4/28/2023 15:32:21.500,-2.316,0.688,-0.766
4/28/2023 15:32:21.510,-2.211,0.418,-0.633
4/28/2023 15:32:21.520,-2.164,-0.094,-0.656
4/28/2023 15:32:21.530,-1.727,-0.43,-0.809
4/28/2023 15:32:21.540,-0.652,-0.625,-0.738
4/28/2023 15:32:21.550,-1.57,-0.277,-0.387
4/28/2023 15:32:21.560,-1.379,0.789,-0.117
4/28/2023 15:32:21.570,-0.746,0.836,-0.082
4/28/2023 15:32:21.580,-0.668,0.051,-0.055
4/28/2023 15:32:21.590,-0.492,-0.277,-0.059
4/28/2023 15:32:21.600,-0.242,-0.328,0.035
4/28/2023 15:32:21.610,-0.098,-0.324,0.16
4/28/2023 15:32:21.620,-0.027,-0.273,0.199
4/28/2023 15:32:21.630,-0.027,-0.215,0.238
4/28/2023 15:32:21.640,-0.051,-0.141,0.223
4/28/2023 15:32:21.650,-0.074,-0.113,0.191
4/28/2023 15:32:21.660,-0.141,-0.148,0.164
4/28/2023 15:32:21.670,-0.195,-0.223,0.133
4/28/2023 15:32:21.680,-0.219,-0.285,0.098
4/28/2023 15:32:21.690,-0.254,-0.281,0.055
4/28/2023 15:32:21.700,-0.316,-0.246,0.031
4/28/2023 15:32:21.710,-0.363,-0.176,0.008
4/28/2023 15:32:21.720,-0.41,-0.133,-0.023
4/28/2023 15:32:21.730,-0.465,-0.109,-0.043
4/28/2023 15:32:21.740,-0.523,-0.109,-0.066
4/28/2023 15:32:21.750,-0.613,-0.113,-0.059
4/28/2023 15:32:21.760,-0.727,-0.141,-0.023
4/28/2023 15:32:21.770,-0.859,-0.145,0.016
4/28/2023 15:32:21.780,-1.035,-0.125,0.051
4/28/2023 15:32:21.790,-1.27,-0.121,0.063
4/28/2023 15:32:21.800,-1.547,-0.102,0.02
4/28/2023 15:32:21.810,-1.813,-0.012,-0.023
4/28/2023 15:32:21.820,-2.07,0.129,-0.063
4/28/2023 15:32:21.830,-2.359,0.328,-0.121
4/28/2023 15:32:21.840,-2.633,0.578,-0.227
4/28/2023 15:32:21.850,-2.789,0.84,-0.395
4/28/2023 15:32:21.860,-2.719,0.988,-0.543
4/28/2023 15:32:21.870,-2.469,1.512,-0.707
4/28/2023 15:32:21.880,-2.371,2.301,-0.742
4/28/2023 15:32:21.890,-2.008,2.824,-0.25
4/28/2023 15:32:21.900,-1.785,2.781,0.125
4/28/2023 15:32:21.910,-1.816,2.703,0.348
4/28/2023 15:32:21.920,-1.77,2.418,0.391
4/28/2023 15:32:21.930,-1.676,2.008,0.441
4/28/2023 15:32:21.940,-1.773,1.516,0.152
4/28/2023 15:32:21.950,-1.344,0.293,-0.242
4/28/2023 15:32:21.960,-1.848,-3.395,-0.402
4/28/2023 15:32:21.970,-2.387,-3.48,1.742
4/28/2023 15:32:21.980,-2.434,-0.574,1.703
4/28/2023 15:32:21.990,-2.297,1.523,0.566
4/28/2023 15:32:22.000,-2.438,1.781,-0.375
4/28/2023 15:32:22.010,-1.383,0.578,-0.387
4/28/2023 15:32:22.020,-0.156,-0.098,-0.191
4/28/2023 15:32:22.030,0.051,0.176,-0.645
4/28/2023 15:32:22.040,-0.613,1.121,-1.012
4/28/2023 15:32:22.050,-1.539,1.73,-0.785
4/28/2023 15:32:22.060,-1.344,1.086,-0.27
4/28/2023 15:32:22.070,-1.07,0.527,-0.027
4/28/2023 15:32:22.080,-1.105,0.504,-0.07
4/28/2023 15:32:22.090,-0.961,0.402,0.117
4/28/2023 15:32:22.100,-0.895,0.305,0.262
4/28/2023 15:32:22.110,-0.902,0.266,0.266
4/28/2023 15:32:22.120,-0.898,0.184,0.207
4/28/2023 15:32:22.130,-0.93,0.09,0.215
4/28/2023 15:32:22.140,-0.961,0.027,0.129
4/28/2023 15:32:22.150,-1.039,0.02,-0.129
4/28/2023 15:32:22.160,-1.074,0.039,-0.316
4/28/2023 15:32:22.170,-1.063,0.035,-0.438
4/28/2023 15:32:22.180,-1.07,0.02,-0.516
4/28/2023 15:32:22.190,-1.035,0.02,-0.426
4/28/2023 15:32:22.200,-1.008,-0.043,-0.25
4/28/2023 15:32:22.210,-1.043,-0.16,-0.137
4/28/2023 15:32:22.220,-1.117,-0.215,-0.082
4/28/2023 15:32:22.230,-1.164,-0.195,-0.066
4/28/2023 15:32:22.240,-1.164,-0.145,-0.16
4/28/2023 15:32:22.250,-1.156,-0.105,-0.324
4/28/2023 15:32:22.260,-1.109,-0.133,-0.43
4/28/2023 15:32:22.270,-1.051,-0.168,-0.465
4/28/2023 15:32:22.280,-1.02,-0.18,-0.426
4/28/2023 15:32:22.290,-1.059,-0.148,-0.355
4/28/2023 15:32:22.300,-1.051,-0.16,-0.313
4/28/2023 15:32:22.310,-1.012,-0.223,-0.289
4/28/2023 15:32:22.320,-1.02,-0.199,-0.246
4/28/2023 15:32:22.330,-1.074,-0.117,-0.195
4/28/2023 15:32:22.340,-1.148,-0.055,-0.156
4/28/2023 15:32:22.350,-1.207,0.004,-0.125
4/28/2023 15:32:22.360,-1.246,0.02,-0.109
4/28/2023 15:32:22.370,-1.262,-0.02,-0.055
4/28/2023 15:32:22.380,-1.266,-0.105,0.012
4/28/2023 15:32:22.390,-1.285,-0.188,0.023
4/28/2023 15:32:22.400,-1.363,-0.23,-0.012
4/28/2023 15:32:22.410,-1.453,-0.25,-0.051
4/28/2023 15:32:22.420,-1.523,-0.281,-0.047
4/28/2023 15:32:22.430,-1.535,-0.258,-0.012
4/28/2023 15:32:22.440,-1.574,-0.234,0.02
4/28/2023 15:32:22.450,-1.629,-0.242,-0.016
4/28/2023 15:32:22.460,-1.66,-0.328,-0.133
4/28/2023 15:32:22.470,-1.715,-0.449,-0.25
4/28/2023 15:32:22.480,-1.77,-0.578,-0.316
4/28/2023 15:32:22.490,-1.938,-0.727,-0.379
4/28/2023 15:32:22.500,-2.176,-1.137,-0.508
4/28/2023 15:32:22.510,-2.23,-1.625,-0.543
4/28/2023 15:32:22.520,-2.074,-1.484,-0.473
4/28/2023 15:32:22.530,-2.328,-0.504,-0.551
4/28/2023 15:32:22.540,-2.465,0.441,-0.727
4/28/2023 15:32:22.550,-2.133,0.629,-0.844
4/28/2023 15:32:22.560,-2.086,0.223,-0.738
4/28/2023 15:32:22.570,-1.996,-0.199,-0.742
4/28/2023 15:32:22.580,-1.539,-0.434,-0.863
4/28/2023 15:32:22.590,-0.504,-0.668,-0.754
4/28/2023 15:32:22.600,-1.434,-0.363,-0.406
4/28/2023 15:32:22.610,-1.238,0.637,-0.246
4/28/2023 15:32:22.620,-0.648,0.578,-0.18
4/28/2023 15:32:22.630,-0.566,-0.156,-0.129
4/28/2023 15:32:22.640,-0.441,-0.418,-0.113
4/28/2023 15:32:22.650,-0.234,-0.414,0
4/28/2023 15:32:22.660,-0.051,-0.324,0.082
4/28/2023 15:32:22.670,0.035,-0.277,0.129
4/28/2023 15:32:22.680,-0.008,-0.246,0.156
4/28/2023 15:32:22.690,-0.055,-0.211,0.152
4/28/2023 15:32:22.700,-0.113,-0.23,0.141
4/28/2023 15:32:22.710,-0.203,-0.293,0.141
4/28/2023 15:32:22.720,-0.266,-0.352,0.129
4/28/2023 15:32:22.730,-0.316,-0.371,0.094
4/28/2023 15:32:22.740,-0.398,-0.355,0.07
4/28/2023 15:32:22.750,-0.477,-0.309,0.055
4/28/2023 15:32:22.760,-0.539,-0.281,0.035
4/28/2023 15:32:22.770,-0.613,-0.273,0.004
4/28/2023 15:32:22.780,-0.699,-0.25,-0.031
4/28/2023 15:32:22.790,-0.809,-0.227,-0.031
4/28/2023 15:32:22.800,-0.949,-0.199,-0.012
4/28/2023 15:32:22.810,-1.098,-0.16,0.02
4/28/2023 15:32:22.820,-1.289,-0.109,0.027
4/28/2023 15:32:22.830,-1.543,-0.078,0.027
4/28/2023 15:32:22.840,-1.801,-0.066,-0.008
4/28/2023 15:32:22.850,-2.004,0.027,-0.07
4/28/2023 15:32:22.860,-2.199,0.188,-0.137
4/28/2023 15:32:22.870,-2.426,0.383,-0.16
4/28/2023 15:32:22.880,-2.66,0.625,-0.246
4/28/2023 15:32:22.890,-2.762,0.875,-0.449
4/28/2023 15:32:22.900,-2.703,0.996,-0.551
4/28/2023 15:32:22.910,-2.547,1.605,-0.719
4/28/2023 15:32:22.920,-2.414,2.492,-0.539
4/28/2023 15:32:22.930,-2.035,2.945,-0.027
4/28/2023 15:32:22.940,-1.836,2.918,0.273
4/28/2023 15:32:22.950,-1.867,2.863,0.344
4/28/2023 15:32:22.960,-1.75,2.484,0.391
4/28/2023 15:32:22.970,-1.613,2.023,0.469
4/28/2023 15:32:22.980,-1.734,1.59,0.168
4/28/2023 15:32:22.990,-1.355,0.352,-0.211
4/28/2023 15:32:23.000,-1.785,-3.574,-0.406
4/28/2023 15:32:23.010,-2.266,-3.668,1.863
4/28/2023 15:32:23.020,-2.289,-0.555,1.785
4/28/2023 15:32:23.030,-2.156,1.758,0.566
4/28/2023 15:32:23.040,-2.293,1.934,-0.504
4/28/2023 15:32:23.050,-1.316,0.777,-0.5
4/28/2023 15:32:23.060,-0.422,0.184,-0.34
4/28/2023 15:32:23.070,-0.387,0.332,-0.691
4/28/2023 15:32:23.080,-1.016,1.141,-0.82
4/28/2023 15:32:23.090,-1.344,1.598,-0.582
4/28/2023 15:32:23.100,-1.074,0.891,-0.188
4/28/2023 15:32:23.110,-1.102,0.531,-0.055
4/28/2023 15:32:23.120,-1.055,0.453,-0.02
4/28/2023 15:32:23.130,-0.918,0.293,0.18
4/28/2023 15:32:23.140,-0.895,0.227,0.328
4/28/2023 15:32:23.150,-0.902,0.191,0.273
4/28/2023 15:32:23.160,-0.91,0.105,0.188
4/28/2023 15:32:23.170,-1,0.047,-0.023
4/28/2023 15:32:23.180,-1.086,0.113,-0.148
4/28/2023 15:32:23.190,-1.051,0.117,-0.129
4/28/2023 15:32:23.200,-1.055,0.043,-0.297
4/28/2023 15:32:23.210,-1.094,0,-0.387
4/28/2023 15:32:23.220,-1.066,0.016,-0.281
4/28/2023 15:32:23.230,-1.043,-0.008,-0.16
4/28/2023 15:32:23.240,-1.082,-0.125,-0.059
4/28/2023 15:32:23.250,-1.168,-0.176,-0.012
4/28/2023 15:32:23.260,-1.207,-0.129,-0.035
4/28/2023 15:32:23.270,-1.195,-0.074,-0.125
4/28/2023 15:32:23.280,-1.195,-0.074,-0.207
4/28/2023 15:32:23.290,-1.184,-0.098,-0.277
4/28/2023 15:32:23.300,-1.156,-0.148,-0.316
4/28/2023 15:32:23.310,-1.102,-0.156,-0.324
4/28/2023 15:32:23.320,-1.074,-0.195,-0.32
4/28/2023 15:32:23.330,-1.074,-0.25,-0.309
4/28/2023 15:32:23.340,-1.074,-0.297,-0.32
4/28/2023 15:32:23.350,-1.07,-0.277,-0.313
4/28/2023 15:32:23.360,-1.094,-0.191,-0.285
4/28/2023 15:32:23.370,-1.164,-0.113,-0.211
4/28/2023 15:32:23.380,-1.227,-0.066,-0.129
4/28/2023 15:32:23.390,-1.254,-0.082,-0.07
4/28/2023 15:32:23.400,-1.246,-0.125,0.016
4/28/2023 15:32:23.410,-1.285,-0.199,0.047
4/28/2023 15:32:23.420,-1.336,-0.266,-0.004
4/28/2023 15:32:23.430,-1.375,-0.301,-0.043
4/28/2023 15:32:23.440,-1.418,-0.316,-0.023
4/28/2023 15:32:23.450,-1.473,-0.305,0.035
4/28/2023 15:32:23.460,-1.516,-0.309,0.055
4/28/2023 15:32:23.470,-1.625,-0.359,-0.008
4/28/2023 15:32:23.480,-1.75,-0.465,-0.18
4/28/2023 15:32:23.490,-1.836,-0.605,-0.316
4/28/2023 15:32:23.500,-1.961,-0.77,-0.355
4/28/2023 15:32:23.510,-2.121,-1.055,-0.43
4/28/2023 15:32:23.520,-2.301,-1.563,-0.59
4/28/2023 15:32:23.530,-2.281,-1.688,-0.613
4/28/2023 15:32:23.540,-2.523,-0.867,-0.66
4/28/2023 15:32:23.550,-2.695,0.328,-0.711
4/28/2023 15:32:23.560,-2.316,0.934,-0.758
4/28/2023 15:32:23.570,-2.262,0.535,-0.676
4/28/2023 15:32:23.580,-2.148,-0.203,-0.805
4/28/2023 15:32:23.590,-1.555,-0.57,-0.965
4/28/2023 15:32:23.600,-0.668,-0.758,-0.738
4/28/2023 15:32:23.610,-1.695,-0.195,-0.332
4/28/2023 15:32:23.620,-1.105,0.887,-0.242
4/28/2023 15:32:23.630,-0.727,0.5,-0.199
4/28/2023 15:32:23.640,-0.586,-0.184,-0.152
4/28/2023 15:32:23.650,-0.371,-0.379,-0.125
4/28/2023 15:32:23.660,-0.125,-0.375,0.008
4/28/2023 15:32:23.670,0.008,-0.313,0.086
4/28/2023 15:32:23.680,0.086,-0.246,0.109
4/28/2023 15:32:23.690,0.031,-0.18,0.102
4/28/2023 15:32:23.700,-0.035,-0.125,0.063
4/28/2023 15:32:23.710,-0.09,-0.129,0.031
4/28/2023 15:32:23.720,-0.156,-0.195,0.016
4/28/2023 15:32:23.730,-0.227,-0.258,-0.004
4/28/2023 15:32:23.740,-0.277,-0.27,-0.039
4/28/2023 15:32:23.750,-0.324,-0.246,-0.082
4/28/2023 15:32:23.760,-0.395,-0.164,-0.137
4/28/2023 15:32:23.770,-0.453,-0.086,-0.176
4/28/2023 15:32:23.780,-0.484,-0.055,-0.195
4/28/2023 15:32:23.790,-0.531,-0.07,-0.207
4/28/2023 15:32:23.800,-0.605,-0.117,-0.211
4/28/2023 15:32:23.810,-0.711,-0.152,-0.191
4/28/2023 15:32:23.820,-0.852,-0.148,-0.172
4/28/2023 15:32:23.830,-1.035,-0.094,-0.164
4/28/2023 15:32:23.840,-1.262,-0.074,-0.16
4/28/2023 15:32:23.850,-1.52,-0.07,-0.184
4/28/2023 15:32:23.860,-1.805,-0.004,-0.262
4/28/2023 15:32:23.870,-2.059,0.125,-0.344
4/28/2023 15:32:23.880,-2.336,0.332,-0.453
4/28/2023 15:32:23.890,-2.73,0.715,-0.59
4/28/2023 15:32:23.900,-2.793,1.02,-0.652
4/28/2023 15:32:23.910,-2.59,1.004,-0.57
4/28/2023 15:32:23.920,-2.484,1.273,-0.813
4/28/2023 15:32:23.930,-2.527,2.02,-0.926
4/28/2023 15:32:23.940,-2.02,2.676,-0.125
4/28/2023 15:32:23.950,-1.816,2.602,0.395
4/28/2023 15:32:23.960,-1.824,2.359,0.738
4/28/2023 15:32:23.970,-1.797,1.973,0.801
4/28/2023 15:32:23.980,-1.688,1.512,0.809
4/28/2023 15:32:23.990,-1.547,1.414,0.809
4/28/2023 15:32:24.000,-1.707,1.277,0.395
4/28/2023 15:32:24.010,-1.23,0.078,-0.352
4/28/2023 15:32:24.020,-1.754,-3.488,-0.121
4/28/2023 15:32:24.030,-2.539,-2.328,2.004
4/28/2023 15:32:24.040,-2.82,0.875,1.66
4/28/2023 15:32:24.050,-2.344,2.367,-0.055
4/28/2023 15:32:24.060,-1.91,1.555,-0.699
4/28/2023 15:32:24.070,-0.84,0.313,-0.34
4/28/2023 15:32:24.080,-0.195,-0.125,-0.094
4/28/2023 15:32:24.090,-0.406,0.348,-0.598
4/28/2023 15:32:24.100,-1.359,1.379,-0.766
4/28/2023 15:32:24.110,-1.328,1.445,-0.391
4/28/2023 15:32:24.120,-1.008,0.797,-0.066
4/28/2023 15:32:24.130,-1.035,0.676,0
4/28/2023 15:32:24.140,-0.902,0.547,0.07
4/28/2023 15:32:24.150,-0.914,0.41,0.215
4/28/2023 15:32:24.160,-0.918,0.41,0.297
4/28/2023 15:32:24.170,-0.93,0.383,0.242
4/28/2023 15:32:24.180,-0.969,0.297,0.129
4/28/2023 15:32:24.190,-1.012,0.281,0.059
4/28/2023 15:32:24.200,-1.047,0.234,0.039
4/28/2023 15:32:24.210,-1.074,0.152,-0.031
4/28/2023 15:32:24.220,-1.113,0.055,-0.207
4/28/2023 15:32:24.230,-1.129,0.012,-0.227
4/28/2023 15:32:24.240,-1.109,-0.02,-0.16
4/28/2023 15:32:24.250,-1.121,-0.098,-0.117
4/28/2023 15:32:24.260,-1.172,-0.164,-0.109
4/28/2023 15:32:24.270,-1.188,-0.184,-0.098
4/28/2023 15:32:24.280,-1.203,-0.16,-0.125
4/28/2023 15:32:24.290,-1.203,-0.141,-0.176
4/28/2023 15:32:24.300,-1.191,-0.117,-0.262
4/28/2023 15:32:24.310,-1.117,-0.113,-0.324
4/28/2023 15:32:24.320,-1.031,-0.113,-0.355
4/28/2023 15:32:24.330,-0.973,-0.078,-0.348
4/28/2023 15:32:24.340,-0.938,-0.074,-0.313
4/28/2023 15:32:24.350,-0.906,-0.137,-0.285
4/28/2023 15:32:24.360,-0.926,-0.164,-0.301
4/28/2023 15:32:24.370,-1,-0.141,-0.34
4/28/2023 15:32:24.380,-1.082,-0.125,-0.34
4/28/2023 15:32:24.390,-1.156,-0.082,-0.297
4/28/2023 15:32:24.400,-1.219,-0.016,-0.25
4/28/2023 15:32:24.410,-1.242,-0.016,-0.199
4/28/2023 15:32:24.420,-1.219,-0.078,-0.121
4/28/2023 15:32:24.430,-1.211,-0.184,-0.047
4/28/2023 15:32:24.440,-1.266,-0.25,0
4/28/2023 15:32:24.450,-1.352,-0.289,0.008
4/28/2023 15:32:24.460,-1.418,-0.285,0
4/28/2023 15:32:24.470,-1.465,-0.254,0.035
4/28/2023 15:32:24.480,-1.504,-0.238,0.094
4/28/2023 15:32:24.490,-1.551,-0.238,0.102
4/28/2023 15:32:24.500,-1.633,-0.305,-0.004
4/28/2023 15:32:24.510,-1.691,-0.402,-0.176
4/28/2023 15:32:24.520,-1.75,-0.496,-0.32
4/28/2023 15:32:24.530,-1.813,-0.586,-0.398
4/28/2023 15:32:24.540,-1.934,-0.813,-0.473
4/28/2023 15:32:24.550,-2.105,-1.32,-0.465
4/28/2023 15:32:24.560,-2.168,-1.668,-0.414
4/28/2023 15:32:24.570,-2.441,-1.195,-0.414
4/28/2023 15:32:24.580,-2.758,0.023,-0.539
4/28/2023 15:32:24.590,-2.438,0.785,-0.625
4/28/2023 15:32:24.600,-2.215,0.711,-0.664
4/28/2023 15:32:24.610,-2.195,0.094,-0.68
4/28/2023 15:32:24.620,-1.805,-0.344,-0.781
4/28/2023 15:32:24.630,-0.871,-0.566,-0.75
4/28/2023 15:32:24.640,-1.234,-0.438,-0.441
4/28/2023 15:32:24.650,-1.578,0.457,-0.219
4/28/2023 15:32:24.660,-0.793,0.852,-0.156
4/28/2023 15:32:24.670,-0.68,0.113,-0.137
4/28/2023 15:32:24.680,-0.547,-0.246,-0.109
4/28/2023 15:32:24.690,-0.305,-0.301,0.02
4/28/2023 15:32:24.700,-0.137,-0.293,0.137
4/28/2023 15:32:24.710,0,-0.254,0.156
4/28/2023 15:32:24.720,-0.02,-0.203,0.172
4/28/2023 15:32:24.730,-0.059,-0.152,0.18
4/28/2023 15:32:24.740,-0.09,-0.16,0.184
4/28/2023 15:32:24.750,-0.133,-0.203,0.191
4/28/2023 15:32:24.760,-0.172,-0.254,0.199
4/28/2023 15:32:24.770,-0.211,-0.281,0.195
4/28/2023 15:32:24.780,-0.25,-0.285,0.164
4/28/2023 15:32:24.790,-0.316,-0.258,0.125
4/28/2023 15:32:24.800,-0.363,-0.219,0.094
4/28/2023 15:32:24.810,-0.406,-0.195,0.059
4/28/2023 15:32:24.820,-0.473,-0.176,0.023
4/28/2023 15:32:24.830,-0.559,-0.18,-0.016
4/28/2023 15:32:24.840,-0.672,-0.191,-0.027
4/28/2023 15:32:24.850,-0.793,-0.195,-0.012
4/28/2023 15:32:24.860,-0.949,-0.148,0.012
4/28/2023 15:32:24.870,-1.133,-0.086,0.059
4/28/2023 15:32:24.880,-1.348,-0.078,0.098
4/28/2023 15:32:24.890,-1.602,-0.07,0.086
4/28/2023 15:32:24.900,-1.855,0,0.059
4/28/2023 15:32:24.910,-2.105,0.137,0.031
4/28/2023 15:32:24.920,-2.363,0.328,0.012
4/28/2023 15:32:24.930,-2.605,0.566,-0.023
4/28/2023 15:32:24.940,-2.77,0.813,-0.137
4/28/2023 15:32:24.950,-2.762,0.93,-0.262
4/28/2023 15:32:24.960,-2.598,1.152,-0.25
4/28/2023 15:32:24.970,-2.324,1.969,-0.34
4/28/2023 15:32:24.980,-2.152,2.613,-0.035
4/28/2023 15:32:24.990,-1.91,2.816,0.266
4/28/2023 15:32:25.000,-1.801,2.785,0.398
4/28/2023 15:32:25.010,-1.754,2.563,0.32
4/28/2023 15:32:25.020,-1.582,2.117,0.344
4/28/2023 15:32:25.030,-1.527,1.813,0.297
4/28/2023 15:32:25.040,-1.5,1.293,-0.199
4/28/2023 15:32:25.050,-1.313,-0.832,-0.637
4/28/2023 15:32:25.060,-1.879,-4.203,0.082
4/28/2023 15:32:25.070,-2.031,-2.434,1.488
4/28/2023 15:32:25.080,-2.281,0.492,1.254
4/28/2023 15:32:25.090,-2.285,1.965,0.211
4/28/2023 15:32:25.100,-2.137,1.398,-0.566
4/28/2023 15:32:25.110,-1.125,0.336,-0.523
4/28/2023 15:32:25.120,-0.473,-0.047,-0.496
4/28/2023 15:32:25.130,-0.496,0.266,-0.711
4/28/2023 15:32:25.140,-1.09,1.199,-0.578
4/28/2023 15:32:25.150,-1.195,1.355,-0.391
4/28/2023 15:32:25.160,-1.004,0.84,-0.152
4/28/2023 15:32:25.170,-1.035,0.641,0.035
4/28/2023 15:32:25.180,-0.902,0.488,0.352
4/28/2023 15:32:25.190,-0.848,0.359,0.41
4/28/2023 15:32:25.200,-0.953,0.348,0.223
4/28/2023 15:32:25.210,-0.988,0.371,0.094
4/28/2023 15:32:25.220,-1.004,0.367,0.094
4/28/2023 15:32:25.230,-1.012,0.32,0.09
4/28/2023 15:32:25.240,-1.039,0.277,0.035
4/28/2023 15:32:25.250,-1.059,0.203,-0.133
4/28/2023 15:32:25.260,-1.109,0.117,-0.305
4/28/2023 15:32:25.270,-1.117,0.055,-0.285
4/28/2023 15:32:25.280,-1.082,0.055,-0.211
4/28/2023 15:32:25.290,-1.07,0.023,-0.168
4/28/2023 15:32:25.300,-1.105,-0.055,-0.121
4/28/2023 15:32:25.310,-1.148,-0.125,-0.098
4/28/2023 15:32:25.320,-1.164,-0.121,-0.121
4/28/2023 15:32:25.330,-1.164,-0.121,-0.16
4/28/2023 15:32:25.340,-1.164,-0.129,-0.219
4/28/2023 15:32:25.350,-1.148,-0.148,-0.25
4/28/2023 15:32:25.360,-1.082,-0.141,-0.273
4/28/2023 15:32:25.370,-1.031,-0.148,-0.273
4/28/2023 15:32:25.380,-0.996,-0.164,-0.234
4/28/2023 15:32:25.390,-0.996,-0.18,-0.207
4/28/2023 15:32:25.400,-1.004,-0.164,-0.184
4/28/2023 15:32:25.410,-1.02,-0.152,-0.188
4/28/2023 15:32:25.420,-1.051,-0.109,-0.176
4/28/2023 15:32:25.430,-1.082,-0.066,-0.164
4/28/2023 15:32:25.440,-1.133,-0.07,-0.184
4/28/2023 15:32:25.450,-1.168,-0.074,-0.199
4/28/2023 15:32:25.460,-1.191,-0.043,-0.184
4/28/2023 15:32:25.470,-1.211,-0.047,-0.125
4/28/2023 15:32:25.480,-1.195,-0.098,-0.059
4/28/2023 15:32:25.490,-1.234,-0.168,0.008
4/28/2023 15:32:25.500,-1.328,-0.195,0.02
4/28/2023 15:32:25.510,-1.398,-0.219,0.027
4/28/2023 15:32:25.520,-1.438,-0.262,0.078
4/28/2023 15:32:25.530,-1.496,-0.242,0.121
4/28/2023 15:32:25.540,-1.578,-0.23,0.094
4/28/2023 15:32:25.550,-1.652,-0.27,-0.031
4/28/2023 15:32:25.560,-1.715,-0.367,-0.199
4/28/2023 15:32:25.570,-1.801,-0.469,-0.305
4/28/2023 15:32:25.580,-1.953,-0.59,-0.355
4/28/2023 15:32:25.590,-2.203,-0.855,-0.457
4/28/2023 15:32:25.600,-2.355,-1.395,-0.582
4/28/2023 15:32:25.610,-2.258,-1.645,-0.531
4/28/2023 15:32:25.620,-2.176,-1.047,-0.555
4/28/2023 15:32:25.630,-2.395,0.176,-0.688
4/28/2023 15:32:25.640,-2.234,1.055,-0.742
4/28/2023 15:32:25.650,-2.102,0.984,-0.602
4/28/2023 15:32:25.660,-2.164,0.238,-0.648
4/28/2023 15:32:25.670,-1.773,-0.145,-0.82
4/28/2023 15:32:25.680,-0.855,-0.348,-0.816
4/28/2023 15:32:25.690,-1.105,-0.465,-0.539
4/28/2023 15:32:25.700,-1.41,0.402,-0.219
4/28/2023 15:32:25.710,-0.762,0.957,-0.137
4/28/2023 15:32:25.720,-0.617,0.301,-0.063
4/28/2023 15:32:25.730,-0.465,-0.191,0.016
4/28/2023 15:32:25.740,-0.277,-0.336,0.051
4/28/2023 15:32:25.750,-0.086,-0.336,0.121
4/28/2023 15:32:25.760,0.004,-0.324,0.219
4/28/2023 15:32:25.770,-0.016,-0.281,0.266
4/28/2023 15:32:25.780,-0.027,-0.211,0.266
4/28/2023 15:32:25.790,-0.039,-0.156,0.223
4/28/2023 15:32:25.800,-0.09,-0.152,0.164
4/28/2023 15:32:25.810,-0.141,-0.18,0.113
4/28/2023 15:32:25.820,-0.168,-0.188,0.059
4/28/2023 15:32:25.830,-0.199,-0.195,0.02
4/28/2023 15:32:25.840,-0.23,-0.176,0
4/28/2023 15:32:25.850,-0.285,-0.133,-0.027
4/28/2023 15:32:25.860,-0.344,-0.105,-0.047
4/28/2023 15:32:25.870,-0.387,-0.094,-0.078
4/28/2023 15:32:25.880,-0.445,-0.09,-0.113
4/28/2023 15:32:25.890,-0.523,-0.109,-0.129
4/28/2023 15:32:25.900,-0.629,-0.133,-0.113
4/28/2023 15:32:25.910,-0.758,-0.145,-0.066
4/28/2023 15:32:25.920,-0.93,-0.113,-0.008
4/28/2023 15:32:25.930,-1.137,-0.078,0.031
4/28/2023 15:32:25.940,-1.363,-0.078,0.043
4/28/2023 15:32:25.950,-1.613,-0.035,0.008
4/28/2023 15:32:25.960,-1.844,0.086,-0.043
4/28/2023 15:32:25.970,-2.082,0.258,-0.117
4/28/2023 15:32:25.980,-2.348,0.5,-0.191
4/28/2023 15:32:25.990,-2.582,0.797,-0.277
4/28/2023 15:32:26.000,-2.656,1.051,-0.359
4/28/2023 15:32:26.010,-2.574,1.125,-0.398
4/28/2023 15:32:26.020,-2.383,1.48,-0.473
4/28/2023 15:32:26.030,-2.262,2.254,-0.551
4/28/2023 15:32:26.040,-2.004,2.762,-0.262
4/28/2023 15:32:26.050,-1.719,2.836,0.09
4/28/2023 15:32:26.060,-1.738,2.691,0.266
4/28/2023 15:32:26.070,-1.707,2.387,0.32
4/28/2023 15:32:26.080,-1.785,1.773,0.141
4/28/2023 15:32:26.090,-1.207,1.141,-0.148
4/28/2023 15:32:26.100,-1.809,-2.184,-0.285
4/28/2023 15:32:26.110,-2.68,-3.074,1.176
4/28/2023 15:32:26.120,-2.535,-0.441,1.355
4/28/2023 15:32:26.130,-2.258,1.816,0.48
4/28/2023 15:32:26.140,-2.188,1.551,-0.465
4/28/2023 15:32:26.150,-1.133,0.219,-0.32
4/28/2023 15:32:26.160,-0.195,-0.234,-0.223
4/28/2023 15:32:26.170,-0.172,0.055,-0.793
4/28/2023 15:32:26.180,-1.094,1.129,-0.883
4/28/2023 15:32:26.190,-1.348,1.57,-0.473
4/28/2023 15:32:26.200,-0.969,0.883,-0.016
4/28/2023 15:32:26.210,-1.008,0.609,0.27
4/28/2023 15:32:26.220,-0.922,0.5,0.461
4/28/2023 15:32:26.230,-0.941,0.344,0.309
4/28/2023 15:32:26.240,-1.008,0.336,0.09
4/28/2023 15:32:26.250,-1.012,0.324,0.121
4/28/2023 15:32:26.260,-1.016,0.211,0.098
4/28/2023 15:32:26.270,-1.059,0.188,-0.027
4/28/2023 15:32:26.280,-1.09,0.184,-0.297
4/28/2023 15:32:26.290,-1.098,0.117,-0.332
4/28/2023 15:32:26.300,-1.078,0.074,-0.277
4/28/2023 15:32:26.310,-1.051,0.086,-0.262
4/28/2023 15:32:26.320,-1.047,0.016,-0.199
4/28/2023 15:32:26.330,-1.09,-0.074,-0.121
4/28/2023 15:32:26.340,-1.152,-0.082,-0.09
4/28/2023 15:32:26.350,-1.176,-0.031,-0.125
4/28/2023 15:32:26.360,-1.184,-0.059,-0.164
4/28/2023 15:32:26.370,-1.18,-0.145,-0.176
4/28/2023 15:32:26.380,-1.125,-0.18,-0.203
4/28/2023 15:32:26.390,-1.07,-0.164,-0.238
4/28/2023 15:32:26.400,-1.02,-0.164,-0.266
4/28/2023 15:32:26.410,-0.996,-0.172,-0.27
4/28/2023 15:32:26.420,-0.996,-0.16,-0.258
4/28/2023 15:32:26.430,-1.004,-0.176,-0.277
4/28/2023 15:32:26.440,-0.996,-0.168,-0.297
4/28/2023 15:32:26.450,-1,-0.125,-0.32
4/28/2023 15:32:26.460,-1.031,-0.051,-0.305
4/28/2023 15:32:26.470,-1.066,0.008,-0.242
4/28/2023 15:32:26.480,-1.102,0.043,-0.18
4/28/2023 15:32:26.490,-1.137,0.047,-0.129
4/28/2023 15:32:26.500,-1.156,0.008,-0.098
4/28/2023 15:32:26.510,-1.133,-0.074,-0.063
4/28/2023 15:32:26.520,-1.133,-0.152,-0.023
4/28/2023 15:32:26.530,-1.176,-0.184,-0.008
4/28/2023 15:32:26.540,-1.254,-0.184,-0.027
4/28/2023 15:32:26.550,-1.336,-0.172,-0.055
4/28/2023 15:32:26.560,-1.406,-0.168,-0.027
4/28/2023 15:32:26.570,-1.453,-0.164,0.07
4/28/2023 15:32:26.580,-1.512,-0.16,0.156
4/28/2023 15:32:26.590,-1.563,-0.203,0.141
4/28/2023 15:32:26.600,-1.605,-0.297,-0.004
4/28/2023 15:32:26.610,-1.684,-0.414,-0.176
4/28/2023 15:32:26.620,-1.813,-0.551,-0.289
4/28/2023 15:32:26.630,-2.02,-0.703,-0.363
4/28/2023 15:32:26.640,-2.238,-1.137,-0.512
4/28/2023 15:32:26.650,-2.203,-1.578,-0.496
4/28/2023 15:32:26.660,-2.055,-1.418,-0.445
4/28/2023 15:32:26.670,-2.301,-0.383,-0.574
4/28/2023 15:32:26.680,-2.352,0.727,-0.688
4/28/2023 15:32:26.690,-2.102,1.016,-0.703
4/28/2023 15:32:26.700,-2.156,0.5,-0.57
4/28/2023 15:32:26.710,-2.063,0.008,-0.711
4/28/2023 15:32:26.720,-1.566,-0.172,-0.828
4/28/2023 15:32:26.730,-0.594,-0.453,-0.707
4/28/2023 15:32:26.740,-1.359,-0.348,-0.375
4/28/2023 15:32:26.750,-1.191,0.672,-0.191
4/28/2023 15:32:26.760,-0.668,0.824,-0.141
4/28/2023 15:32:26.770,-0.617,0.137,-0.051
4/28/2023 15:32:26.780,-0.469,-0.199,0.004
4/28/2023 15:32:26.790,-0.281,-0.266,0.035
4/28/2023 15:32:26.800,-0.094,-0.246,0.098
4/28/2023 15:32:26.810,-0.012,-0.246,0.168
4/28/2023 15:32:26.820,-0.023,-0.215,0.211
4/28/2023 15:32:26.830,-0.047,-0.188,0.211
4/28/2023 15:32:26.840,-0.09,-0.176,0.199
4/28/2023 15:32:26.850,-0.164,-0.191,0.176
4/28/2023 15:32:26.860,-0.215,-0.207,0.16
4/28/2023 15:32:26.870,-0.227,-0.215,0.125
4/28/2023 15:32:26.880,-0.25,-0.215,0.09
4/28/2023 15:32:26.890,-0.313,-0.203,0.043
4/28/2023 15:32:26.900,-0.402,-0.16,0.004
4/28/2023 15:32:26.910,-0.477,-0.141,-0.031
4/28/2023 15:32:26.920,-0.539,-0.141,-0.07
4/28/2023 15:32:26.930,-0.613,-0.156,-0.09
4/28/2023 15:32:26.940,-0.695,-0.156,-0.086
4/28/2023 15:32:26.950,-0.805,-0.156,-0.051
4/28/2023 15:32:26.960,-0.914,-0.141,-0.008
4/28/2023 15:32:26.970,-1.055,-0.109,0.027
4/28/2023 15:32:26.980,-1.254,-0.098,0.047
4/28/2023 15:32:26.990,-1.496,-0.113,0.035
4/28/2023 15:32:27.000,-1.758,-0.059,-0.035
4/28/2023 15:32:27.010,-1.969,0.121,-0.098
4/28/2023 15:32:27.020,-2.184,0.32,-0.145
4/28/2023 15:32:27.030,-2.453,0.527,-0.188
4/28/2023 15:32:27.040,-2.703,0.789,-0.266
4/28/2023 15:32:27.050,-2.699,0.969,-0.355
4/28/2023 15:32:27.060,-2.512,1.098,-0.398
4/28/2023 15:32:27.070,-2.383,1.852,-0.723
4/28/2023 15:32:27.080,-2.164,2.641,-0.508
4/28/2023 15:32:27.090,-1.77,2.938,-0.086
4/28/2023 15:32:27.100,-1.727,2.75,0.152
4/28/2023 15:32:27.110,-1.73,2.523,0.293
4/28/2023 15:32:27.120,-1.602,2.145,0.348
4/28/2023 15:32:27.130,-1.551,1.859,0.332
4/28/2023 15:32:27.140,-1.406,1.34,-0.172
4/28/2023 15:32:27.150,-1.375,-0.992,-0.48
4/28/2023 15:32:27.160,-1.965,-4.363,0.551
4/28/2023 15:32:27.170,-2.109,-2.328,1.715
4/28/2023 15:32:27.180,-2.195,0.551,1.055
4/28/2023 15:32:27.190,-2.133,1.871,0.004
4/28/2023 15:32:27.200,-1.766,1.199,-0.559
4/28/2023 15:32:27.210,-0.918,0.246,-0.363
4/28/2023 15:32:27.220,-0.648,-0.023,-0.754
4/28/2023 15:32:27.230,-0.906,0.512,-0.984
4/28/2023 15:32:27.240,-1.266,1.395,-0.598
4/28/2023 15:32:27.250,-0.984,1.16,-0.273
4/28/2023 15:32:27.260,-0.906,0.703,-0.027
4/28/2023 15:32:27.270,-0.906,0.477,0.402
4/28/2023 15:32:27.280,-0.898,0.344,0.512
4/28/2023 15:32:27.290,-0.941,0.309,0.199
4/28/2023 15:32:27.300,-0.988,0.387,0.07
4/28/2023 15:32:27.310,-0.984,0.316,0.137
4/28/2023 15:32:27.320,-1.031,0.227,0.035
4/28/2023 15:32:27.330,-1.059,0.238,-0.016
4/28/2023 15:32:27.340,-1.051,0.234,-0.199
4/28/2023 15:32:27.350,-1.094,0.148,-0.324
4/28/2023 15:32:27.360,-1.086,0.109,-0.242
4/28/2023 15:32:27.370,-1.047,0.141,-0.203
4/28/2023 15:32:27.380,-1.047,0.105,-0.18
4/28/2023 15:32:27.390,-1.078,-0.02,-0.109
4/28/2023 15:32:27.400,-1.117,-0.051,-0.09
4/28/2023 15:32:27.410,-1.156,-0.016,-0.141
4/28/2023 15:32:27.420,-1.18,-0.016,-0.156
4/28/2023 15:32:27.430,-1.195,-0.031,-0.156
4/28/2023 15:32:27.440,-1.184,-0.027,-0.148
4/28/2023 15:32:27.450,-1.145,-0.047,-0.152
4/28/2023 15:32:27.460,-1.105,-0.09,-0.16
4/28/2023 15:32:27.470,-1.07,-0.109,-0.172
4/28/2023 15:32:27.480,-1.039,-0.113,-0.168
4/28/2023 15:32:27.490,-1.023,-0.102,-0.164
4/28/2023 15:32:27.500,-1.02,-0.074,-0.176
4/28/2023 15:32:27.510,-1.016,-0.074,-0.195
4/28/2023 15:32:27.520,-1.012,-0.105,-0.246
4/28/2023 15:32:27.530,-1.008,-0.121,-0.277
4/28/2023 15:32:27.540,-1.012,-0.086,-0.254
4/28/2023 15:32:27.550,-1.043,-0.035,-0.203
4/28/2023 15:32:27.560,-1.066,0.004,-0.172
4/28/2023 15:32:27.570,-1.094,0.008,-0.137
4/28/2023 15:32:27.580,-1.113,-0.016,-0.094
4/28/2023 15:32:27.590,-1.117,-0.086,-0.047
4/28/2023 15:32:27.600,-1.16,-0.152,-0.047
4/28/2023 15:32:27.610,-1.238,-0.137,-0.066
4/28/2023 15:32:27.620,-1.281,-0.121,-0.063
4/28/2023 15:32:27.630,-1.324,-0.125,0.02
4/28/2023 15:32:27.640,-1.355,-0.121,0.113
4/28/2023 15:32:27.650,-1.406,-0.113,0.129
4/28/2023 15:32:27.660,-1.473,-0.145,0.035
4/28/2023 15:32:27.670,-1.547,-0.223,-0.141
4/28/2023 15:32:27.680,-1.609,-0.305,-0.293
4/28/2023 15:32:27.690,-1.715,-0.375,-0.352
4/28/2023 15:32:27.700,-1.93,-0.496,-0.395
4/28/2023 15:32:27.710,-2.137,-0.875,-0.457
4/28/2023 15:32:27.720,-2.18,-1.355,-0.422
4/28/2023 15:32:27.730,-2.059,-1.371,-0.367
4/28/2023 15:32:27.740,-2.141,-0.602,-0.473
4/28/2023 15:32:27.750,-2.297,0.438,-0.676
4/28/2023 15:32:27.760,-2.125,0.949,-0.762
4/28/2023 15:32:27.770,-2.031,0.707,-0.688
4/28/2023 15:32:27.780,-2.09,0.234,-0.625
4/28/2023 15:32:27.790,-1.805,0.055,-0.719
4/28/2023 15:32:27.800,-1.203,-0.055,-0.766
4/28/2023 15:32:27.810,-0.645,-0.344,-0.508
4/28/2023 15:32:27.820,-1.449,0.113,-0.176
4/28/2023 15:32:27.830,-0.813,0.867,-0.039
4/28/2023 15:32:27.840,-0.551,0.531,-0.008
4/28/2023 15:32:27.850,-0.492,0.012,0.039
4/28/2023 15:32:27.860,-0.309,-0.152,0.074
4/28/2023 15:32:27.870,-0.125,-0.203,0.148
