------------ Data File Created By ActiGraph GT3X+ ActiLife v6.13.4 Firmware v1.7.2 date format M/d/yyyy at 100 Hz  Filter Normal -----------
Serial Number: TAS1H50200818
Start Time 17:49:00
Start Date 5/1/2023
Epoch Period (hh:mm:ss) 00:00:00
Download Time 18:06:21
Download Date 5/1/2023
Current Memory Address: 0
Current Battery Voltage: 4.21     Mode = 12
--------------------------------------------------
Timestamp,Accelerometer X,Accelerometer Y,Accelerometer Z
5/1/2023 17:49:00.000,-0.309,0.105,0.941
5/1/2023 17:49:00.010,-0.289,0.098,0.953
5/1/2023 17:49:00.020,-0.281,0.094,0.953
5/1/2023 17:49:00.030,-0.277,0.102,0.957
5/1/2023 17:49:00.040,-0.273,0.098,0.957
5/1/2023 17:49:00.050,-0.281,0.102,0.961
5/1/2023 17:49:00.060,-0.281,0.102,0.957
5/1/2023 17:49:00.070,-0.281,0.102,0.973
5/1/2023 17:49:00.080,-0.285,0.09,0.977
5/1/2023 17:49:00.090,-0.281,0.086,0.98
5/1/2023 17:49:00.100,-0.293,0.082,0.984
5/1/2023 17:49:00.110,-0.293,0.074,0.988
5/1/2023 17:49:00.120,-0.285,0.078,0.992
5/1/2023 17:49:00.130,-0.289,0.086,1
5/1/2023 17:49:00.140,-0.277,0.086,0.992
5/1/2023 17:49:00.150,-0.273,0.086,0.984
5/1/2023 17:49:00.160,-0.273,0.086,0.973
5/1/2023 17:49:00.170,-0.266,0.09,0.953
5/1/2023 17:49:00.180,-0.262,0.098,0.941
5/1/2023 17:49:00.190,-0.262,0.102,0.93
5/1/2023 17:49:00.200,-0.27,0.102,0.926
5/1/2023 17:49:00.210,-0.266,0.105,0.922
5/1/2023 17:49:00.220,-0.27,0.109,0.914
5/1/2023 17:49:00.230,-0.273,0.105,0.91
5/1/2023 17:49:00.240,-0.273,0.113,0.91
5/1/2023 17:49:00.250,-0.277,0.117,0.906
5/1/2023 17:49:00.260,-0.277,0.117,0.914
5/1/2023 17:49:00.270,-0.277,0.117,0.922
5/1/2023 17:49:00.280,-0.277,0.121,0.926
5/1/2023 17:49:00.290,-0.281,0.121,0.934
5/1/2023 17:49:00.300,-0.277,0.113,0.938
5/1/2023 17:49:00.310,-0.277,0.117,0.941
5/1/2023 17:49:00.320,-0.273,0.117,0.949
5/1/2023 17:49:00.330,-0.273,0.117,0.957
5/1/2023 17:49:00.340,-0.273,0.117,0.957
5/1/2023 17:49:00.350,-0.281,0.109,0.965
5/1/2023 17:49:00.360,-0.281,0.105,0.973
5/1/2023 17:49:00.370,-0.281,0.105,0.969
5/1/2023 17:49:00.380,-0.281,0.094,0.965
5/1/2023 17:49:00.390,-0.281,0.09,0.961
5/1/2023 17:49:00.400,-0.277,0.09,0.957
5/1/2023 17:49:00.410,-0.273,0.09,0.961
5/1/2023 17:49:00.420,-0.273,0.09,0.961
5/1/2023 17:49:00.430,-0.273,0.094,0.965
5/1/2023 17:49:00.440,-0.273,0.098,0.961
5/1/2023 17:49:00.450,-0.273,0.098,0.957
5/1/2023 17:49:00.460,-0.27,0.102,0.953
5/1/2023 17:49:00.470,-0.266,0.094,0.945
5/1/2023 17:49:00.480,-0.27,0.09,0.945
5/1/2023 17:49:00.490,-0.27,0.09,0.949
5/1/2023 17:49:00.500,-0.281,0.086,0.949
5/1/2023 17:49:00.510,-0.273,0.086,0.961
5/1/2023 17:49:00.520,-0.273,0.086,0.957
5/1/2023 17:49:00.530,-0.277,0.086,0.957
5/1/2023 17:49:00.540,-0.277,0.09,0.957
5/1/2023 17:49:00.550,-0.277,0.094,0.961
5/1/2023 17:49:00.560,-0.277,0.094,0.961
5/1/2023 17:49:00.570,-0.281,0.102,0.969
5/1/2023 17:49:00.580,-0.277,0.109,0.969
5/1/2023 17:49:00.590,-0.285,0.109,0.98
5/1/2023 17:49:00.600,-0.285,0.109,0.98
5/1/2023 17:49:00.610,-0.285,0.113,0.973
5/1/2023 17:49:00.620,-0.281,0.117,0.973
5/1/2023 17:49:00.630,-0.285,0.113,0.965
5/1/2023 17:49:00.640,-0.289,0.113,0.961
5/1/2023 17:49:00.650,-0.285,0.113,0.949
5/1/2023 17:49:00.660,-0.289,0.117,0.941
5/1/2023 17:49:00.670,-0.289,0.117,0.941
5/1/2023 17:49:00.680,-0.293,0.121,0.941
5/1/2023 17:49:00.690,-0.289,0.121,0.941
5/1/2023 17:49:00.700,-0.289,0.121,0.941
5/1/2023 17:49:00.710,-0.285,0.125,0.938
5/1/2023 17:49:00.720,-0.289,0.121,0.934
5/1/2023 17:49:00.730,-0.293,0.121,0.941
5/1/2023 17:49:00.740,-0.293,0.117,0.938
5/1/2023 17:49:00.750,-0.293,0.117,0.938
5/1/2023 17:49:00.760,-0.297,0.117,0.938
5/1/2023 17:49:00.770,-0.297,0.113,0.941
5/1/2023 17:49:00.780,-0.301,0.121,0.949
5/1/2023 17:49:00.790,-0.297,0.121,0.949
5/1/2023 17:49:00.800,-0.297,0.121,0.945
5/1/2023 17:49:00.810,-0.293,0.117,0.949
5/1/2023 17:49:00.820,-0.293,0.121,0.945
5/1/2023 17:49:00.830,-0.289,0.121,0.945
5/1/2023 17:49:00.840,-0.285,0.117,0.949
5/1/2023 17:49:00.850,-0.289,0.113,0.945
5/1/2023 17:49:00.860,-0.289,0.109,0.949
5/1/2023 17:49:00.870,-0.285,0.113,0.953
5/1/2023 17:49:00.880,-0.289,0.113,0.957
5/1/2023 17:49:00.890,-0.289,0.117,0.953
5/1/2023 17:49:00.900,-0.293,0.113,0.957
5/1/2023 17:49:00.910,-0.289,0.113,0.957
5/1/2023 17:49:00.920,-0.297,0.117,0.957
5/1/2023 17:49:00.930,-0.297,0.117,0.957
5/1/2023 17:49:00.940,-0.297,0.117,0.953
5/1/2023 17:49:00.950,-0.293,0.117,0.953
5/1/2023 17:49:00.960,-0.293,0.117,0.949
5/1/2023 17:49:00.970,-0.297,0.117,0.945
5/1/2023 17:49:00.980,-0.301,0.121,0.941
5/1/2023 17:49:00.990,-0.293,0.121,0.941
5/1/2023 17:49:01.000,-0.301,0.125,0.934
5/1/2023 17:49:01.010,-0.297,0.117,0.934
5/1/2023 17:49:01.020,-0.297,0.117,0.93
5/1/2023 17:49:01.030,-0.297,0.113,0.926
5/1/2023 17:49:01.040,-0.297,0.117,0.926
5/1/2023 17:49:01.050,-0.293,0.117,0.922
5/1/2023 17:49:01.060,-0.293,0.121,0.926
5/1/2023 17:49:01.070,-0.293,0.125,0.922
5/1/2023 17:49:01.080,-0.289,0.129,0.934
5/1/2023 17:49:01.090,-0.293,0.129,0.934
5/1/2023 17:49:01.100,-0.293,0.133,0.941
5/1/2023 17:49:01.110,-0.285,0.137,0.949
5/1/2023 17:49:01.120,-0.277,0.133,0.953
5/1/2023 17:49:01.130,-0.277,0.129,0.953
5/1/2023 17:49:01.140,-0.273,0.141,0.953
5/1/2023 17:49:01.150,-0.273,0.141,0.957
5/1/2023 17:49:01.160,-0.27,0.141,0.957
5/1/2023 17:49:01.170,-0.273,0.145,0.961
5/1/2023 17:49:01.180,-0.273,0.145,0.961
5/1/2023 17:49:01.190,-0.273,0.152,0.961
5/1/2023 17:49:01.200,-0.266,0.156,0.957
5/1/2023 17:49:01.210,-0.266,0.156,0.957
5/1/2023 17:49:01.220,-0.266,0.156,0.953
5/1/2023 17:49:01.230,-0.266,0.156,0.957
5/1/2023 17:49:01.240,-0.27,0.152,0.961
5/1/2023 17:49:01.250,-0.273,0.152,0.957
5/1/2023 17:49:01.260,-0.27,0.156,0.957
5/1/2023 17:49:01.270,-0.273,0.16,0.957
5/1/2023 17:49:01.280,-0.273,0.16,0.957
5/1/2023 17:49:01.290,-0.273,0.16,0.957
5/1/2023 17:49:01.300,-0.273,0.16,0.957
5/1/2023 17:49:01.310,-0.277,0.16,0.961
5/1/2023 17:49:01.320,-0.277,0.16,0.961
5/1/2023 17:49:01.330,-0.273,0.16,0.957
5/1/2023 17:49:01.340,-0.273,0.164,0.949
5/1/2023 17:49:01.350,-0.273,0.16,0.953
5/1/2023 17:49:01.360,-0.273,0.164,0.957
5/1/2023 17:49:01.370,-0.27,0.168,0.957
5/1/2023 17:49:01.380,-0.27,0.172,0.953
5/1/2023 17:49:01.390,-0.273,0.176,0.949
5/1/2023 17:49:01.400,-0.273,0.168,0.949
5/1/2023 17:49:01.410,-0.273,0.164,0.941
5/1/2023 17:49:01.420,-0.273,0.164,0.934
5/1/2023 17:49:01.430,-0.277,0.16,0.934
5/1/2023 17:49:01.440,-0.277,0.164,0.938
5/1/2023 17:49:01.450,-0.285,0.164,0.934
5/1/2023 17:49:01.460,-0.289,0.164,0.934
5/1/2023 17:49:01.470,-0.297,0.164,0.934
5/1/2023 17:49:01.480,-0.305,0.168,0.934
5/1/2023 17:49:01.490,-0.305,0.164,0.938
5/1/2023 17:49:01.500,-0.313,0.164,0.938
5/1/2023 17:49:01.510,-0.305,0.16,0.938
5/1/2023 17:49:01.520,-0.305,0.16,0.938
5/1/2023 17:49:01.530,-0.305,0.16,0.938
5/1/2023 17:49:01.540,-0.305,0.16,0.938
5/1/2023 17:49:01.550,-0.305,0.16,0.938
5/1/2023 17:49:01.560,-0.305,0.164,0.934
5/1/2023 17:49:01.570,-0.309,0.16,0.934
5/1/2023 17:49:01.580,-0.309,0.16,0.934
5/1/2023 17:49:01.590,-0.309,0.16,0.934
5/1/2023 17:49:01.600,-0.309,0.168,0.938
5/1/2023 17:49:01.610,-0.309,0.164,0.934
5/1/2023 17:49:01.620,-0.309,0.16,0.93
5/1/2023 17:49:01.630,-0.309,0.164,0.922
5/1/2023 17:49:01.640,-0.309,0.164,0.926
5/1/2023 17:49:01.650,-0.309,0.164,0.934
5/1/2023 17:49:01.660,-0.309,0.168,0.934
5/1/2023 17:49:01.670,-0.301,0.172,0.938
5/1/2023 17:49:01.680,-0.293,0.168,0.941
5/1/2023 17:49:01.690,-0.285,0.172,0.941
5/1/2023 17:49:01.700,-0.285,0.172,0.941
5/1/2023 17:49:01.710,-0.285,0.176,0.941
5/1/2023 17:49:01.720,-0.293,0.168,0.941
5/1/2023 17:49:01.730,-0.297,0.164,0.941
5/1/2023 17:49:01.740,-0.297,0.164,0.941
5/1/2023 17:49:01.750,-0.305,0.16,0.938
5/1/2023 17:49:01.760,-0.305,0.16,0.938
5/1/2023 17:49:01.770,-0.301,0.16,0.934
5/1/2023 17:49:01.780,-0.301,0.164,0.93
5/1/2023 17:49:01.790,-0.297,0.16,0.934
5/1/2023 17:49:01.800,-0.297,0.16,0.938
5/1/2023 17:49:01.810,-0.293,0.16,0.938
5/1/2023 17:49:01.820,-0.293,0.164,0.945
5/1/2023 17:49:01.830,-0.285,0.172,0.949
5/1/2023 17:49:01.840,-0.277,0.172,0.945
5/1/2023 17:49:01.850,-0.277,0.164,0.941
5/1/2023 17:49:01.860,-0.273,0.164,0.949
5/1/2023 17:49:01.870,-0.273,0.16,0.949
5/1/2023 17:49:01.880,-0.273,0.16,0.953
5/1/2023 17:49:01.890,-0.273,0.164,0.957
5/1/2023 17:49:01.900,-0.277,0.168,0.949
5/1/2023 17:49:01.910,-0.281,0.164,0.949
5/1/2023 17:49:01.920,-0.289,0.16,0.949
5/1/2023 17:49:01.930,-0.285,0.16,0.949
5/1/2023 17:49:01.940,-0.289,0.16,0.949
5/1/2023 17:49:01.950,-0.285,0.164,0.949
5/1/2023 17:49:01.960,-0.277,0.164,0.949
5/1/2023 17:49:01.970,-0.273,0.16,0.949
5/1/2023 17:49:01.980,-0.273,0.164,0.949
5/1/2023 17:49:01.990,-0.27,0.168,0.953
5/1/2023 17:49:02.000,-0.277,0.164,0.945
5/1/2023 17:49:02.010,-0.273,0.16,0.949
5/1/2023 17:49:02.020,-0.273,0.156,0.945
5/1/2023 17:49:02.030,-0.273,0.156,0.945
5/1/2023 17:49:02.040,-0.27,0.16,0.941
5/1/2023 17:49:02.050,-0.27,0.156,0.941
5/1/2023 17:49:02.060,-0.27,0.156,0.941
5/1/2023 17:49:02.070,-0.27,0.16,0.945
5/1/2023 17:49:02.080,-0.27,0.156,0.945
5/1/2023 17:49:02.090,-0.27,0.156,0.949
5/1/2023 17:49:02.100,-0.27,0.16,0.953
5/1/2023 17:49:02.110,-0.27,0.16,0.949
5/1/2023 17:49:02.120,-0.27,0.152,0.949
5/1/2023 17:49:02.130,-0.273,0.156,0.949
5/1/2023 17:49:02.140,-0.266,0.156,0.945
5/1/2023 17:49:02.150,-0.27,0.16,0.949
5/1/2023 17:49:02.160,-0.27,0.16,0.945
5/1/2023 17:49:02.170,-0.273,0.16,0.949
5/1/2023 17:49:02.180,-0.273,0.156,0.953
5/1/2023 17:49:02.190,-0.27,0.152,0.949
5/1/2023 17:49:02.200,-0.27,0.152,0.949
5/1/2023 17:49:02.210,-0.27,0.152,0.953
5/1/2023 17:49:02.220,-0.262,0.156,0.957
5/1/2023 17:49:02.230,-0.266,0.156,0.957
5/1/2023 17:49:02.240,-0.266,0.156,0.961
5/1/2023 17:49:02.250,-0.266,0.156,0.961
5/1/2023 17:49:02.260,-0.262,0.16,0.953
5/1/2023 17:49:02.270,-0.262,0.16,0.953
5/1/2023 17:49:02.280,-0.266,0.16,0.953
5/1/2023 17:49:02.290,-0.27,0.16,0.953
5/1/2023 17:49:02.300,-0.27,0.16,0.953
5/1/2023 17:49:02.310,-0.266,0.16,0.953
5/1/2023 17:49:02.320,-0.27,0.16,0.953
5/1/2023 17:49:02.330,-0.266,0.16,0.953
5/1/2023 17:49:02.340,-0.27,0.156,0.953
5/1/2023 17:49:02.350,-0.27,0.156,0.953
5/1/2023 17:49:02.360,-0.27,0.156,0.949
5/1/2023 17:49:02.370,-0.266,0.16,0.953
5/1/2023 17:49:02.380,-0.27,0.16,0.953
5/1/2023 17:49:02.390,-0.266,0.16,0.957
5/1/2023 17:49:02.400,-0.266,0.16,0.957
5/1/2023 17:49:02.410,-0.266,0.16,0.957
5/1/2023 17:49:02.420,-0.27,0.16,0.957
5/1/2023 17:49:02.430,-0.266,0.164,0.957
5/1/2023 17:49:02.440,-0.27,0.16,0.957
5/1/2023 17:49:02.450,-0.27,0.164,0.957
5/1/2023 17:49:02.460,-0.27,0.16,0.957
5/1/2023 17:49:02.470,-0.27,0.16,0.953
5/1/2023 17:49:02.480,-0.266,0.156,0.953
5/1/2023 17:49:02.490,-0.266,0.156,0.945
5/1/2023 17:49:02.500,-0.273,0.164,0.938
5/1/2023 17:49:02.510,-0.266,0.16,0.941
5/1/2023 17:49:02.520,-0.262,0.16,0.945
5/1/2023 17:49:02.530,-0.258,0.164,0.941
5/1/2023 17:49:02.540,-0.262,0.16,0.945
5/1/2023 17:49:02.550,-0.258,0.164,0.953
5/1/2023 17:49:02.560,-0.262,0.168,0.953
5/1/2023 17:49:02.570,-0.258,0.164,0.953
5/1/2023 17:49:02.580,-0.266,0.16,0.953
5/1/2023 17:49:02.590,-0.262,0.16,0.953
5/1/2023 17:49:02.600,-0.266,0.16,0.949
5/1/2023 17:49:02.610,-0.258,0.16,0.945
5/1/2023 17:49:02.620,-0.262,0.156,0.941
5/1/2023 17:49:02.630,-0.27,0.156,0.945
5/1/2023 17:49:02.640,-0.27,0.156,0.941
5/1/2023 17:49:02.650,-0.27,0.164,0.949
5/1/2023 17:49:02.660,-0.273,0.164,0.953
5/1/2023 17:49:02.670,-0.273,0.164,0.945
5/1/2023 17:49:02.680,-0.273,0.164,0.949
5/1/2023 17:49:02.690,-0.277,0.16,0.945
5/1/2023 17:49:02.700,-0.273,0.156,0.945
5/1/2023 17:49:02.710,-0.273,0.156,0.953
5/1/2023 17:49:02.720,-0.277,0.16,0.949
5/1/2023 17:49:02.730,-0.273,0.16,0.949
5/1/2023 17:49:02.740,-0.273,0.16,0.945
5/1/2023 17:49:02.750,-0.27,0.164,0.945
5/1/2023 17:49:02.760,-0.277,0.16,0.945
5/1/2023 17:49:02.770,-0.277,0.16,0.941
5/1/2023 17:49:02.780,-0.277,0.16,0.938
5/1/2023 17:49:02.790,-0.277,0.16,0.941
5/1/2023 17:49:02.800,-0.273,0.16,0.945
5/1/2023 17:49:02.810,-0.27,0.16,0.945
5/1/2023 17:49:02.820,-0.266,0.16,0.941
5/1/2023 17:49:02.830,-0.27,0.16,0.941
5/1/2023 17:49:02.840,-0.273,0.164,0.941
5/1/2023 17:49:02.850,-0.277,0.164,0.941
5/1/2023 17:49:02.860,-0.273,0.168,0.941
5/1/2023 17:49:02.870,-0.273,0.172,0.945
5/1/2023 17:49:02.880,-0.277,0.168,0.945
5/1/2023 17:49:02.890,-0.277,0.164,0.949
5/1/2023 17:49:02.900,-0.273,0.16,0.953
5/1/2023 17:49:02.910,-0.277,0.164,0.957
5/1/2023 17:49:02.920,-0.281,0.168,0.953
5/1/2023 17:49:02.930,-0.285,0.164,0.949
5/1/2023 17:49:02.940,-0.285,0.16,0.945
5/1/2023 17:49:02.950,-0.281,0.16,0.949
5/1/2023 17:49:02.960,-0.285,0.168,0.945
5/1/2023 17:49:02.970,-0.289,0.164,0.945
5/1/2023 17:49:02.980,-0.285,0.164,0.941
5/1/2023 17:49:02.990,-0.289,0.164,0.945
5/1/2023 17:49:03.000,-0.297,0.16,0.949
5/1/2023 17:49:03.010,-0.285,0.164,0.953
5/1/2023 17:49:03.020,-0.277,0.164,0.945
5/1/2023 17:49:03.030,-0.281,0.164,0.941
5/1/2023 17:49:03.040,-0.277,0.164,0.941
5/1/2023 17:49:03.050,-0.277,0.164,0.945
5/1/2023 17:49:03.060,-0.277,0.16,0.938
5/1/2023 17:49:03.070,-0.281,0.16,0.938
5/1/2023 17:49:03.080,-0.285,0.16,0.934
5/1/2023 17:49:03.090,-0.285,0.164,0.938
5/1/2023 17:49:03.100,-0.289,0.164,0.934
5/1/2023 17:49:03.110,-0.289,0.16,0.938
5/1/2023 17:49:03.120,-0.285,0.164,0.934
5/1/2023 17:49:03.130,-0.281,0.168,0.934
5/1/2023 17:49:03.140,-0.277,0.172,0.938
5/1/2023 17:49:03.150,-0.281,0.164,0.945
5/1/2023 17:49:03.160,-0.281,0.16,0.949
5/1/2023 17:49:03.170,-0.285,0.16,0.953
5/1/2023 17:49:03.180,-0.297,0.16,0.945
5/1/2023 17:49:03.190,-0.297,0.152,0.949
5/1/2023 17:49:03.200,-0.297,0.152,0.953
5/1/2023 17:49:03.210,-0.293,0.148,0.949
5/1/2023 17:49:03.220,-0.293,0.148,0.945
5/1/2023 17:49:03.230,-0.293,0.148,0.945
5/1/2023 17:49:03.240,-0.293,0.152,0.945
5/1/2023 17:49:03.250,-0.293,0.152,0.938
5/1/2023 17:49:03.260,-0.293,0.156,0.938
5/1/2023 17:49:03.270,-0.285,0.152,0.938
5/1/2023 17:49:03.280,-0.281,0.152,0.934
5/1/2023 17:49:03.290,-0.281,0.148,0.938
5/1/2023 17:49:03.300,-0.281,0.152,0.938
5/1/2023 17:49:03.310,-0.285,0.152,0.934
5/1/2023 17:49:03.320,-0.285,0.152,0.934
5/1/2023 17:49:03.330,-0.289,0.152,0.934
5/1/2023 17:49:03.340,-0.289,0.152,0.938
5/1/2023 17:49:03.350,-0.293,0.145,0.941
5/1/2023 17:49:03.360,-0.293,0.141,0.949
5/1/2023 17:49:03.370,-0.293,0.129,0.957
5/1/2023 17:49:03.380,-0.289,0.129,0.957
5/1/2023 17:49:03.390,-0.285,0.133,0.957
5/1/2023 17:49:03.400,-0.285,0.133,0.957
5/1/2023 17:49:03.410,-0.285,0.125,0.957
5/1/2023 17:49:03.420,-0.281,0.125,0.953
5/1/2023 17:49:03.430,-0.281,0.125,0.953
5/1/2023 17:49:03.440,-0.285,0.129,0.953
5/1/2023 17:49:03.450,-0.281,0.137,0.945
5/1/2023 17:49:03.460,-0.277,0.137,0.945
5/1/2023 17:49:03.470,-0.277,0.129,0.938
5/1/2023 17:49:03.480,-0.277,0.129,0.938
5/1/2023 17:49:03.490,-0.273,0.125,0.938
5/1/2023 17:49:03.500,-0.277,0.125,0.938
5/1/2023 17:49:03.510,-0.266,0.125,0.945
5/1/2023 17:49:03.520,-0.262,0.125,0.941
5/1/2023 17:49:03.530,-0.266,0.121,0.945
5/1/2023 17:49:03.540,-0.258,0.129,0.941
5/1/2023 17:49:03.550,-0.254,0.129,0.945
5/1/2023 17:49:03.560,-0.258,0.129,0.949
5/1/2023 17:49:03.570,-0.258,0.125,0.949
5/1/2023 17:49:03.580,-0.258,0.121,0.949
5/1/2023 17:49:03.590,-0.258,0.129,0.953
5/1/2023 17:49:03.600,-0.258,0.125,0.953
5/1/2023 17:49:03.610,-0.262,0.125,0.953
5/1/2023 17:49:03.620,-0.266,0.125,0.957
5/1/2023 17:49:03.630,-0.27,0.125,0.957
5/1/2023 17:49:03.640,-0.273,0.125,0.961
5/1/2023 17:49:03.650,-0.281,0.121,0.961
5/1/2023 17:49:03.660,-0.281,0.117,0.961
5/1/2023 17:49:03.670,-0.281,0.121,0.957
5/1/2023 17:49:03.680,-0.277,0.129,0.957
5/1/2023 17:49:03.690,-0.277,0.129,0.957
5/1/2023 17:49:03.700,-0.281,0.125,0.953
5/1/2023 17:49:03.710,-0.277,0.133,0.953
5/1/2023 17:49:03.720,-0.277,0.133,0.957
5/1/2023 17:49:03.730,-0.277,0.133,0.957
5/1/2023 17:49:03.740,-0.277,0.133,0.949
5/1/2023 17:49:03.750,-0.273,0.125,0.941
5/1/2023 17:49:03.760,-0.27,0.129,0.945
5/1/2023 17:49:03.770,-0.27,0.125,0.941
5/1/2023 17:49:03.780,-0.273,0.129,0.938
5/1/2023 17:49:03.790,-0.273,0.129,0.941
5/1/2023 17:49:03.800,-0.273,0.129,0.945
5/1/2023 17:49:03.810,-0.27,0.133,0.949
5/1/2023 17:49:03.820,-0.273,0.137,0.949
5/1/2023 17:49:03.830,-0.273,0.137,0.953
5/1/2023 17:49:03.840,-0.273,0.137,0.953
5/1/2023 17:49:03.850,-0.277,0.133,0.957
5/1/2023 17:49:03.860,-0.277,0.133,0.957
5/1/2023 17:49:03.870,-0.277,0.129,0.961
5/1/2023 17:49:03.880,-0.277,0.129,0.957
5/1/2023 17:49:03.890,-0.277,0.141,0.957
5/1/2023 17:49:03.900,-0.277,0.137,0.953
5/1/2023 17:49:03.910,-0.277,0.133,0.957
5/1/2023 17:49:03.920,-0.277,0.129,0.957
5/1/2023 17:49:03.930,-0.277,0.133,0.953
5/1/2023 17:49:03.940,-0.273,0.137,0.953
5/1/2023 17:49:03.950,-0.273,0.137,0.949
5/1/2023 17:49:03.960,-0.277,0.137,0.949
5/1/2023 17:49:03.970,-0.281,0.133,0.949
5/1/2023 17:49:03.980,-0.289,0.129,0.949
5/1/2023 17:49:03.990,-0.285,0.137,0.953
5/1/2023 17:49:04.000,-0.289,0.133,0.957
5/1/2023 17:49:04.010,-0.281,0.133,0.957
5/1/2023 17:49:04.020,-0.277,0.137,0.945
5/1/2023 17:49:04.030,-0.27,0.141,0.934
5/1/2023 17:49:04.040,-0.27,0.137,0.93
5/1/2023 17:49:04.050,-0.27,0.145,0.922
5/1/2023 17:49:04.060,-0.273,0.141,0.926
5/1/2023 17:49:04.070,-0.27,0.141,0.934
5/1/2023 17:49:04.080,-0.273,0.145,0.941
5/1/2023 17:49:04.090,-0.273,0.141,0.945
5/1/2023 17:49:04.100,-0.273,0.137,0.953
5/1/2023 17:49:04.110,-0.277,0.125,0.953
5/1/2023 17:49:04.120,-0.281,0.125,0.953
5/1/2023 17:49:04.130,-0.281,0.125,0.953
5/1/2023 17:49:04.140,-0.289,0.129,0.953
5/1/2023 17:49:04.150,-0.289,0.137,0.957
5/1/2023 17:49:04.160,-0.285,0.141,0.957
5/1/2023 17:49:04.170,-0.289,0.148,0.957
5/1/2023 17:49:04.180,-0.285,0.152,0.957
5/1/2023 17:49:04.190,-0.289,0.152,0.949
5/1/2023 17:49:04.200,-0.285,0.152,0.941
5/1/2023 17:49:04.210,-0.289,0.145,0.934
5/1/2023 17:49:04.220,-0.281,0.137,0.938
5/1/2023 17:49:04.230,-0.277,0.137,0.934
5/1/2023 17:49:04.240,-0.273,0.141,0.941
5/1/2023 17:49:04.250,-0.285,0.137,0.941
5/1/2023 17:49:04.260,-0.281,0.133,0.941
5/1/2023 17:49:04.270,-0.277,0.133,0.949
5/1/2023 17:49:04.280,-0.277,0.133,0.941
5/1/2023 17:49:04.290,-0.281,0.145,0.949
5/1/2023 17:49:04.300,-0.285,0.145,0.949
5/1/2023 17:49:04.310,-0.285,0.141,0.949
5/1/2023 17:49:04.320,-0.281,0.141,0.953
5/1/2023 17:49:04.330,-0.277,0.137,0.949
5/1/2023 17:49:04.340,-0.281,0.137,0.953
5/1/2023 17:49:04.350,-0.277,0.137,0.957
5/1/2023 17:49:04.360,-0.281,0.133,0.957
5/1/2023 17:49:04.370,-0.277,0.137,0.957
5/1/2023 17:49:04.380,-0.277,0.137,0.953
5/1/2023 17:49:04.390,-0.273,0.133,0.953
5/1/2023 17:49:04.400,-0.277,0.137,0.953
5/1/2023 17:49:04.410,-0.281,0.137,0.949
5/1/2023 17:49:04.420,-0.281,0.137,0.945
5/1/2023 17:49:04.430,-0.277,0.137,0.941
5/1/2023 17:49:04.440,-0.277,0.137,0.941
5/1/2023 17:49:04.450,-0.281,0.141,0.945
5/1/2023 17:49:04.460,-0.277,0.137,0.941
5/1/2023 17:49:04.470,-0.277,0.137,0.941
5/1/2023 17:49:04.480,-0.277,0.137,0.941
5/1/2023 17:49:04.490,-0.277,0.137,0.949
5/1/2023 17:49:04.500,-0.289,0.133,0.953
5/1/2023 17:49:04.510,-0.281,0.129,0.957
5/1/2023 17:49:04.520,-0.277,0.137,0.949
5/1/2023 17:49:04.530,-0.277,0.141,0.945
5/1/2023 17:49:04.540,-0.273,0.141,0.949
5/1/2023 17:49:04.550,-0.273,0.137,0.949
5/1/2023 17:49:04.560,-0.277,0.137,0.945
5/1/2023 17:49:04.570,-0.273,0.141,0.953
5/1/2023 17:49:04.580,-0.273,0.141,0.953
5/1/2023 17:49:04.590,-0.273,0.137,0.953
5/1/2023 17:49:04.600,-0.273,0.137,0.957
5/1/2023 17:49:04.610,-0.273,0.137,0.953
5/1/2023 17:49:04.620,-0.273,0.141,0.945
5/1/2023 17:49:04.630,-0.273,0.145,0.953
5/1/2023 17:49:04.640,-0.277,0.145,0.949
5/1/2023 17:49:04.650,-0.277,0.148,0.949
5/1/2023 17:49:04.660,-0.277,0.145,0.949
5/1/2023 17:49:04.670,-0.273,0.145,0.949
5/1/2023 17:49:04.680,-0.273,0.148,0.945
5/1/2023 17:49:04.690,-0.273,0.141,0.949
5/1/2023 17:49:04.700,-0.277,0.141,0.949
5/1/2023 17:49:04.710,-0.277,0.137,0.953
5/1/2023 17:49:04.720,-0.277,0.137,0.957
5/1/2023 17:49:04.730,-0.281,0.141,0.961
5/1/2023 17:49:04.740,-0.277,0.137,0.961
5/1/2023 17:49:04.750,-0.277,0.137,0.961
5/1/2023 17:49:04.760,-0.277,0.137,0.957
5/1/2023 17:49:04.770,-0.273,0.141,0.957
5/1/2023 17:49:04.780,-0.277,0.137,0.957
5/1/2023 17:49:04.790,-0.277,0.133,0.953
5/1/2023 17:49:04.800,-0.277,0.129,0.949
5/1/2023 17:49:04.810,-0.273,0.133,0.953
5/1/2023 17:49:04.820,-0.273,0.133,0.957
5/1/2023 17:49:04.830,-0.273,0.129,0.953
5/1/2023 17:49:04.840,-0.273,0.125,0.953
5/1/2023 17:49:04.850,-0.273,0.129,0.953
5/1/2023 17:49:04.860,-0.27,0.133,0.949
5/1/2023 17:49:04.870,-0.273,0.133,0.941
5/1/2023 17:49:04.880,-0.281,0.137,0.938
5/1/2023 17:49:04.890,-0.289,0.133,0.938
5/1/2023 17:49:04.900,-0.285,0.129,0.938
5/1/2023 17:49:04.910,-0.281,0.129,0.938
5/1/2023 17:49:04.920,-0.277,0.129,0.945
5/1/2023 17:49:04.930,-0.273,0.133,0.949
5/1/2023 17:49:04.940,-0.273,0.133,0.953
5/1/2023 17:49:04.950,-0.273,0.133,0.949
5/1/2023 17:49:04.960,-0.273,0.133,0.941
5/1/2023 17:49:04.970,-0.273,0.137,0.945
5/1/2023 17:49:04.980,-0.277,0.137,0.941
5/1/2023 17:49:04.990,-0.281,0.137,0.941
5/1/2023 17:49:05.000,-0.289,0.141,0.93
5/1/2023 17:49:05.010,-0.281,0.133,0.934
5/1/2023 17:49:05.020,-0.273,0.133,0.93
5/1/2023 17:49:05.030,-0.273,0.129,0.926
5/1/2023 17:49:05.040,-0.266,0.129,0.934
5/1/2023 17:49:05.050,-0.266,0.133,0.934
5/1/2023 17:49:05.060,-0.262,0.141,0.93
5/1/2023 17:49:05.070,-0.262,0.141,0.934
5/1/2023 17:49:05.080,-0.27,0.148,0.938
5/1/2023 17:49:05.090,-0.27,0.145,0.934
5/1/2023 17:49:05.100,-0.273,0.145,0.941
5/1/2023 17:49:05.110,-0.273,0.141,0.949
5/1/2023 17:49:05.120,-0.273,0.141,0.949
5/1/2023 17:49:05.130,-0.273,0.133,0.949
5/1/2023 17:49:05.140,-0.273,0.129,0.953
5/1/2023 17:49:05.150,-0.273,0.129,0.957
5/1/2023 17:49:05.160,-0.277,0.133,0.957
5/1/2023 17:49:05.170,-0.273,0.129,0.961
5/1/2023 17:49:05.180,-0.273,0.141,0.961
5/1/2023 17:49:05.190,-0.277,0.148,0.961
5/1/2023 17:49:05.200,-0.273,0.152,0.961
5/1/2023 17:49:05.210,-0.273,0.145,0.957
5/1/2023 17:49:05.220,-0.277,0.141,0.953
5/1/2023 17:49:05.230,-0.27,0.141,0.949
5/1/2023 17:49:05.240,-0.266,0.141,0.941
5/1/2023 17:49:05.250,-0.262,0.145,0.938
5/1/2023 17:49:05.260,-0.266,0.148,0.934
5/1/2023 17:49:05.270,-0.27,0.148,0.93
5/1/2023 17:49:05.280,-0.27,0.148,0.93
5/1/2023 17:49:05.290,-0.27,0.148,0.938
5/1/2023 17:49:05.300,-0.266,0.148,0.934
5/1/2023 17:49:05.310,-0.262,0.145,0.941
5/1/2023 17:49:05.320,-0.262,0.145,0.949
5/1/2023 17:49:05.330,-0.258,0.133,0.945
5/1/2023 17:49:05.340,-0.262,0.133,0.949
5/1/2023 17:49:05.350,-0.258,0.133,0.953
5/1/2023 17:49:05.360,-0.258,0.137,0.957
5/1/2023 17:49:05.370,-0.258,0.148,0.957
5/1/2023 17:49:05.380,-0.266,0.156,0.957
5/1/2023 17:49:05.390,-0.266,0.156,0.957
5/1/2023 17:49:05.400,-0.266,0.156,0.949
5/1/2023 17:49:05.410,-0.266,0.152,0.953
5/1/2023 17:49:05.420,-0.266,0.148,0.953
5/1/2023 17:49:05.430,-0.262,0.145,0.945
5/1/2023 17:49:05.440,-0.266,0.145,0.953
5/1/2023 17:49:05.450,-0.266,0.148,0.949
5/1/2023 17:49:05.460,-0.27,0.145,0.945
5/1/2023 17:49:05.470,-0.273,0.148,0.949
5/1/2023 17:49:05.480,-0.273,0.148,0.957
5/1/2023 17:49:05.490,-0.277,0.152,0.945
5/1/2023 17:49:05.500,-0.289,0.156,0.945
5/1/2023 17:49:05.510,-0.281,0.156,0.949
5/1/2023 17:49:05.520,-0.273,0.16,0.949
5/1/2023 17:49:05.530,-0.273,0.156,0.949
5/1/2023 17:49:05.540,-0.273,0.156,0.949
5/1/2023 17:49:05.550,-0.266,0.152,0.945
5/1/2023 17:49:05.560,-0.266,0.148,0.945
5/1/2023 17:49:05.570,-0.258,0.156,0.949
5/1/2023 17:49:05.580,-0.262,0.16,0.953
5/1/2023 17:49:05.590,-0.27,0.16,0.957
5/1/2023 17:49:05.600,-0.27,0.16,0.961
5/1/2023 17:49:05.610,-0.273,0.16,0.961
5/1/2023 17:49:05.620,-0.277,0.16,0.957
5/1/2023 17:49:05.630,-0.273,0.152,0.953
5/1/2023 17:49:05.640,-0.273,0.148,0.949
5/1/2023 17:49:05.650,-0.273,0.141,0.941
5/1/2023 17:49:05.660,-0.273,0.145,0.938
5/1/2023 17:49:05.670,-0.273,0.148,0.938
5/1/2023 17:49:05.680,-0.273,0.152,0.938
5/1/2023 17:49:05.690,-0.277,0.156,0.945
5/1/2023 17:49:05.700,-0.277,0.156,0.945
5/1/2023 17:49:05.710,-0.273,0.156,0.941
5/1/2023 17:49:05.720,-0.273,0.156,0.945
5/1/2023 17:49:05.730,-0.285,0.152,0.945
5/1/2023 17:49:05.740,-0.277,0.156,0.949
5/1/2023 17:49:05.750,-0.277,0.156,0.953
5/1/2023 17:49:05.760,-0.277,0.156,0.957
5/1/2023 17:49:05.770,-0.273,0.156,0.949
5/1/2023 17:49:05.780,-0.277,0.152,0.945
5/1/2023 17:49:05.790,-0.277,0.156,0.941
5/1/2023 17:49:05.800,-0.277,0.156,0.934
5/1/2023 17:49:05.810,-0.273,0.156,0.934
5/1/2023 17:49:05.820,-0.281,0.156,0.934
5/1/2023 17:49:05.830,-0.281,0.156,0.938
5/1/2023 17:49:05.840,-0.285,0.156,0.938
5/1/2023 17:49:05.850,-0.281,0.156,0.938
5/1/2023 17:49:05.860,-0.281,0.156,0.941
5/1/2023 17:49:05.870,-0.277,0.156,0.941
5/1/2023 17:49:05.880,-0.281,0.156,0.941
5/1/2023 17:49:05.890,-0.281,0.16,0.945
5/1/2023 17:49:05.900,-0.277,0.156,0.941
5/1/2023 17:49:05.910,-0.277,0.16,0.938
5/1/2023 17:49:05.920,-0.277,0.16,0.938
5/1/2023 17:49:05.930,-0.281,0.16,0.938
5/1/2023 17:49:05.940,-0.281,0.164,0.938
5/1/2023 17:49:05.950,-0.277,0.16,0.934
5/1/2023 17:49:05.960,-0.277,0.156,0.93
5/1/2023 17:49:05.970,-0.281,0.152,0.934
5/1/2023 17:49:05.980,-0.281,0.156,0.938
5/1/2023 17:49:05.990,-0.281,0.156,0.938
5/1/2023 17:49:06.000,-0.293,0.16,0.941
5/1/2023 17:49:06.010,-0.285,0.16,0.953
5/1/2023 17:49:06.020,-0.277,0.164,0.953
5/1/2023 17:49:06.030,-0.27,0.164,0.949
5/1/2023 17:49:06.040,-0.266,0.16,0.949
5/1/2023 17:49:06.050,-0.27,0.156,0.949
5/1/2023 17:49:06.060,-0.27,0.156,0.953
5/1/2023 17:49:06.070,-0.266,0.156,0.957
5/1/2023 17:49:06.080,-0.258,0.156,0.957
5/1/2023 17:49:06.090,-0.246,0.148,0.957
5/1/2023 17:49:06.100,-0.238,0.148,0.953
5/1/2023 17:49:06.110,-0.234,0.156,0.953
5/1/2023 17:49:06.120,-0.223,0.16,0.949
5/1/2023 17:49:06.130,-0.215,0.16,0.945
5/1/2023 17:49:06.140,-0.211,0.164,0.938
5/1/2023 17:49:06.150,-0.195,0.164,0.93
5/1/2023 17:49:06.160,-0.18,0.172,0.922
5/1/2023 17:49:06.170,-0.164,0.168,0.914
5/1/2023 17:49:06.180,-0.152,0.164,0.906
5/1/2023 17:49:06.190,-0.145,0.164,0.91
5/1/2023 17:49:06.200,-0.137,0.172,0.914
5/1/2023 17:49:06.210,-0.129,0.184,0.914
5/1/2023 17:49:06.220,-0.125,0.191,0.918
5/1/2023 17:49:06.230,-0.125,0.199,0.926
5/1/2023 17:49:06.240,-0.133,0.219,0.938
5/1/2023 17:49:06.250,-0.137,0.23,0.949
5/1/2023 17:49:06.260,-0.141,0.246,0.965
5/1/2023 17:49:06.270,-0.145,0.25,0.977
5/1/2023 17:49:06.280,-0.148,0.246,0.984
5/1/2023 17:49:06.290,-0.152,0.238,0.992
5/1/2023 17:49:06.300,-0.152,0.238,0.992
5/1/2023 17:49:06.310,-0.156,0.246,0.988
5/1/2023 17:49:06.320,-0.164,0.258,0.988
5/1/2023 17:49:06.330,-0.172,0.273,0.984
5/1/2023 17:49:06.340,-0.18,0.285,0.969
5/1/2023 17:49:06.350,-0.191,0.289,0.961
5/1/2023 17:49:06.360,-0.199,0.289,0.953
5/1/2023 17:49:06.370,-0.203,0.297,0.961
5/1/2023 17:49:06.380,-0.207,0.285,0.977
5/1/2023 17:49:06.390,-0.211,0.273,0.98
5/1/2023 17:49:06.400,-0.215,0.277,0.973
5/1/2023 17:49:06.410,-0.211,0.277,0.973
5/1/2023 17:49:06.420,-0.199,0.258,0.984
5/1/2023 17:49:06.430,-0.184,0.246,0.988
5/1/2023 17:49:06.440,-0.164,0.227,0.996
5/1/2023 17:49:06.450,-0.152,0.199,0.992
5/1/2023 17:49:06.460,-0.148,0.176,0.996
5/1/2023 17:49:06.470,-0.145,0.168,1.008
5/1/2023 17:49:06.480,-0.133,0.184,1
5/1/2023 17:49:06.490,-0.129,0.227,0.984
5/1/2023 17:49:06.500,-0.133,0.262,0.984
5/1/2023 17:49:06.510,-0.109,0.281,1.02
5/1/2023 17:49:06.520,-0.125,0.344,1.031
5/1/2023 17:49:06.530,-0.098,0.301,1.023
5/1/2023 17:49:06.540,-0.09,0.238,1.027
5/1/2023 17:49:06.550,-0.066,0.199,1.027
5/1/2023 17:49:06.560,-0.066,0.145,1.023
5/1/2023 17:49:06.570,-0.066,0.09,1.023
5/1/2023 17:49:06.580,-0.098,0.086,1.012
5/1/2023 17:49:06.590,-0.102,0.066,0.984
5/1/2023 17:49:06.600,-0.105,0.094,0.969
5/1/2023 17:49:06.610,-0.102,0.109,0.961
5/1/2023 17:49:06.620,-0.086,0.113,0.941
5/1/2023 17:49:06.630,-0.063,0.133,0.93
5/1/2023 17:49:06.640,-0.07,0.18,0.93
5/1/2023 17:49:06.650,-0.086,0.234,0.926
5/1/2023 17:49:06.660,-0.098,0.258,0.941
5/1/2023 17:49:06.670,-0.113,0.258,0.949
5/1/2023 17:49:06.680,-0.137,0.238,0.945
5/1/2023 17:49:06.690,-0.164,0.23,0.926
5/1/2023 17:49:06.700,-0.195,0.23,0.914
5/1/2023 17:49:06.710,-0.23,0.234,0.887
5/1/2023 17:49:06.720,-0.27,0.23,0.875
5/1/2023 17:49:06.730,-0.293,0.215,0.891
5/1/2023 17:49:06.740,-0.301,0.18,0.906
5/1/2023 17:49:06.750,-0.305,0.156,0.938
5/1/2023 17:49:06.760,-0.297,0.156,0.965
5/1/2023 17:49:06.770,-0.281,0.148,0.996
5/1/2023 17:49:06.780,-0.258,0.152,1.039
5/1/2023 17:49:06.790,-0.246,0.156,1.074
5/1/2023 17:49:06.800,-0.242,0.164,1.09
5/1/2023 17:49:06.810,-0.242,0.164,1.078
5/1/2023 17:49:06.820,-0.242,0.164,1.059
5/1/2023 17:49:06.830,-0.25,0.141,1.031
5/1/2023 17:49:06.840,-0.262,0.102,1.008
5/1/2023 17:49:06.850,-0.281,0.066,0.996
5/1/2023 17:49:06.860,-0.297,0.039,0.988
5/1/2023 17:49:06.870,-0.32,0.023,0.992
5/1/2023 17:49:06.880,-0.355,0.016,1.023
5/1/2023 17:49:06.890,-0.359,0.027,1.051
5/1/2023 17:49:06.900,-0.359,0.039,1.059
5/1/2023 17:49:06.910,-0.352,0.066,1.063
5/1/2023 17:49:06.920,-0.348,0.082,1.043
5/1/2023 17:49:06.930,-0.344,0.082,1.027
5/1/2023 17:49:06.940,-0.336,0.074,1.004
5/1/2023 17:49:06.950,-0.313,0.07,0.996
5/1/2023 17:49:06.960,-0.289,0.066,0.977
5/1/2023 17:49:06.970,-0.262,0.063,0.961
5/1/2023 17:49:06.980,-0.227,0.074,0.941
5/1/2023 17:49:06.990,-0.195,0.086,0.902
5/1/2023 17:49:07.000,-0.176,0.105,0.859
5/1/2023 17:49:07.010,-0.141,0.094,0.828
5/1/2023 17:49:07.020,-0.133,0.059,0.805
5/1/2023 17:49:07.030,-0.148,0.023,0.789
5/1/2023 17:49:07.040,-0.16,0.012,0.777
5/1/2023 17:49:07.050,-0.172,0.012,0.746
5/1/2023 17:49:07.060,-0.184,0.016,0.73
5/1/2023 17:49:07.070,-0.188,0.027,0.734
5/1/2023 17:49:07.080,-0.188,0.031,0.738
5/1/2023 17:49:07.090,-0.191,0.059,0.746
5/1/2023 17:49:07.100,-0.188,0.074,0.746
5/1/2023 17:49:07.110,-0.18,0.063,0.734
5/1/2023 17:49:07.120,-0.176,0.051,0.723
5/1/2023 17:49:07.130,-0.164,0.066,0.727
5/1/2023 17:49:07.140,-0.16,0.09,0.742
5/1/2023 17:49:07.150,-0.168,0.109,0.773
5/1/2023 17:49:07.160,-0.191,0.121,0.813
5/1/2023 17:49:07.170,-0.203,0.145,0.852
5/1/2023 17:49:07.180,-0.223,0.16,0.871
5/1/2023 17:49:07.190,-0.242,0.172,0.875
5/1/2023 17:49:07.200,-0.258,0.176,0.867
5/1/2023 17:49:07.210,-0.266,0.184,0.855
5/1/2023 17:49:07.220,-0.281,0.191,0.836
5/1/2023 17:49:07.230,-0.309,0.203,0.824
5/1/2023 17:49:07.240,-0.332,0.215,0.824
5/1/2023 17:49:07.250,-0.355,0.246,0.852
5/1/2023 17:49:07.260,-0.379,0.273,0.887
5/1/2023 17:49:07.270,-0.395,0.297,0.934
5/1/2023 17:49:07.280,-0.406,0.34,0.992
5/1/2023 17:49:07.290,-0.406,0.398,1.035
5/1/2023 17:49:07.300,-0.395,0.449,1.059
5/1/2023 17:49:07.310,-0.375,0.484,1.082
5/1/2023 17:49:07.320,-0.363,0.516,1.094
5/1/2023 17:49:07.330,-0.336,0.535,1.113
5/1/2023 17:49:07.340,-0.285,0.543,1.145
5/1/2023 17:49:07.350,-0.234,0.543,1.176
5/1/2023 17:49:07.360,-0.18,0.559,1.184
5/1/2023 17:49:07.370,-0.133,0.586,1.137
5/1/2023 17:49:07.380,-0.109,0.629,1.055
5/1/2023 17:49:07.390,-0.121,0.672,0.988
5/1/2023 17:49:07.400,-0.184,0.719,0.949
5/1/2023 17:49:07.410,-0.242,0.766,0.957
5/1/2023 17:49:07.420,-0.262,0.801,0.973
5/1/2023 17:49:07.430,-0.238,0.844,0.988
5/1/2023 17:49:07.440,-0.207,0.859,0.996
5/1/2023 17:49:07.450,-0.176,0.859,0.98
5/1/2023 17:49:07.460,-0.156,0.836,0.953
5/1/2023 17:49:07.470,-0.145,0.801,0.93
5/1/2023 17:49:07.480,-0.141,0.77,0.906
5/1/2023 17:49:07.490,-0.129,0.734,0.875
5/1/2023 17:49:07.500,-0.129,0.703,0.848
5/1/2023 17:49:07.510,-0.113,0.676,0.824
5/1/2023 17:49:07.520,-0.105,0.656,0.785
5/1/2023 17:49:07.530,-0.109,0.656,0.762
5/1/2023 17:49:07.540,-0.125,0.668,0.742
5/1/2023 17:49:07.550,-0.133,0.676,0.723
5/1/2023 17:49:07.560,-0.133,0.684,0.699
5/1/2023 17:49:07.570,-0.129,0.672,0.664
5/1/2023 17:49:07.580,-0.133,0.652,0.637
5/1/2023 17:49:07.590,-0.133,0.613,0.605
5/1/2023 17:49:07.600,-0.129,0.57,0.59
5/1/2023 17:49:07.610,-0.121,0.535,0.582
5/1/2023 17:49:07.620,-0.109,0.504,0.57
5/1/2023 17:49:07.630,-0.109,0.473,0.563
5/1/2023 17:49:07.640,-0.117,0.469,0.563
5/1/2023 17:49:07.650,-0.113,0.469,0.563
5/1/2023 17:49:07.660,-0.102,0.465,0.57
5/1/2023 17:49:07.670,-0.09,0.465,0.59
5/1/2023 17:49:07.680,-0.082,0.469,0.598
5/1/2023 17:49:07.690,-0.078,0.453,0.602
5/1/2023 17:49:07.700,-0.074,0.43,0.613
5/1/2023 17:49:07.710,-0.074,0.41,0.625
5/1/2023 17:49:07.720,-0.07,0.402,0.641
5/1/2023 17:49:07.730,-0.074,0.41,0.668
5/1/2023 17:49:07.740,-0.098,0.438,0.707
5/1/2023 17:49:07.750,-0.117,0.492,0.746
5/1/2023 17:49:07.760,-0.133,0.531,0.793
5/1/2023 17:49:07.770,-0.137,0.578,0.848
5/1/2023 17:49:07.780,-0.129,0.613,0.887
5/1/2023 17:49:07.790,-0.117,0.656,0.906
5/1/2023 17:49:07.800,-0.105,0.715,0.926
5/1/2023 17:49:07.810,-0.098,0.773,0.934
5/1/2023 17:49:07.820,-0.082,0.82,0.934
5/1/2023 17:49:07.830,-0.07,0.84,0.949
5/1/2023 17:49:07.840,-0.055,0.844,0.957
5/1/2023 17:49:07.850,-0.066,0.828,0.961
5/1/2023 17:49:07.860,-0.094,0.816,0.969
5/1/2023 17:49:07.870,-0.137,0.809,0.969
5/1/2023 17:49:07.880,-0.172,0.801,0.98
5/1/2023 17:49:07.890,-0.188,0.797,1
5/1/2023 17:49:07.900,-0.18,0.777,1.02
5/1/2023 17:49:07.910,-0.152,0.742,1.031
5/1/2023 17:49:07.920,-0.129,0.691,1.02
5/1/2023 17:49:07.930,-0.141,0.641,0.984
5/1/2023 17:49:07.940,-0.184,0.617,0.938
5/1/2023 17:49:07.950,-0.246,0.625,0.898
5/1/2023 17:49:07.960,-0.301,0.629,0.871
5/1/2023 17:49:07.970,-0.328,0.629,0.84
5/1/2023 17:49:07.980,-0.34,0.645,0.832
5/1/2023 17:49:07.990,-0.328,0.664,0.844
5/1/2023 17:49:08.000,-0.305,0.68,0.852
5/1/2023 17:49:08.010,-0.246,0.672,0.852
5/1/2023 17:49:08.020,-0.191,0.664,0.844
5/1/2023 17:49:08.030,-0.148,0.664,0.855
5/1/2023 17:49:08.040,-0.113,0.645,0.863
5/1/2023 17:49:08.050,-0.086,0.59,0.859
5/1/2023 17:49:08.060,-0.066,0.512,0.84
5/1/2023 17:49:08.070,-0.063,0.422,0.809
5/1/2023 17:49:08.080,-0.059,0.332,0.773
5/1/2023 17:49:08.090,-0.055,0.27,0.734
5/1/2023 17:49:08.100,-0.059,0.238,0.691
5/1/2023 17:49:08.110,-0.066,0.242,0.66
5/1/2023 17:49:08.120,-0.074,0.246,0.637
5/1/2023 17:49:08.130,-0.082,0.25,0.613
5/1/2023 17:49:08.140,-0.094,0.242,0.59
5/1/2023 17:49:08.150,-0.098,0.234,0.566
5/1/2023 17:49:08.160,-0.102,0.254,0.555
5/1/2023 17:49:08.170,-0.098,0.289,0.531
5/1/2023 17:49:08.180,-0.094,0.324,0.52
5/1/2023 17:49:08.190,-0.109,0.332,0.52
5/1/2023 17:49:08.200,-0.145,0.348,0.527
5/1/2023 17:49:08.210,-0.176,0.348,0.531
5/1/2023 17:49:08.220,-0.195,0.344,0.531
5/1/2023 17:49:08.230,-0.215,0.359,0.531
5/1/2023 17:49:08.240,-0.227,0.371,0.527
5/1/2023 17:49:08.250,-0.246,0.375,0.52
5/1/2023 17:49:08.260,-0.262,0.398,0.523
5/1/2023 17:49:08.270,-0.273,0.426,0.531
5/1/2023 17:49:08.280,-0.285,0.473,0.547
5/1/2023 17:49:08.290,-0.297,0.527,0.578
5/1/2023 17:49:08.300,-0.301,0.578,0.621
5/1/2023 17:49:08.310,-0.305,0.621,0.668
5/1/2023 17:49:08.320,-0.313,0.68,0.723
5/1/2023 17:49:08.330,-0.309,0.75,0.773
5/1/2023 17:49:08.340,-0.293,0.805,0.805
5/1/2023 17:49:08.350,-0.262,0.836,0.805
5/1/2023 17:49:08.360,-0.23,0.852,0.793
5/1/2023 17:49:08.370,-0.195,0.887,0.785
5/1/2023 17:49:08.380,-0.168,0.93,0.797
5/1/2023 17:49:08.390,-0.148,0.965,0.855
5/1/2023 17:49:08.400,-0.16,0.969,0.922
5/1/2023 17:49:08.410,-0.164,0.949,0.98
5/1/2023 17:49:08.420,-0.164,0.918,1.012
5/1/2023 17:49:08.430,-0.141,0.902,1.012
5/1/2023 17:49:08.440,-0.094,0.883,0.992
5/1/2023 17:49:08.450,-0.043,0.836,0.957
5/1/2023 17:49:08.460,-0.02,0.777,0.898
5/1/2023 17:49:08.470,-0.035,0.711,0.832
5/1/2023 17:49:08.480,-0.07,0.664,0.781
5/1/2023 17:49:08.490,-0.098,0.656,0.77
5/1/2023 17:49:08.500,-0.133,0.684,0.773
5/1/2023 17:49:08.510,-0.141,0.719,0.793
5/1/2023 17:49:08.520,-0.141,0.758,0.824
5/1/2023 17:49:08.530,-0.125,0.789,0.855
5/1/2023 17:49:08.540,-0.109,0.813,0.871
5/1/2023 17:49:08.550,-0.09,0.828,0.863
5/1/2023 17:49:08.560,-0.078,0.82,0.848
5/1/2023 17:49:08.570,-0.074,0.77,0.813
5/1/2023 17:49:08.580,-0.082,0.707,0.777
5/1/2023 17:49:08.590,-0.082,0.625,0.742
5/1/2023 17:49:08.600,-0.082,0.555,0.707
5/1/2023 17:49:08.610,-0.078,0.496,0.672
5/1/2023 17:49:08.620,-0.094,0.453,0.637
5/1/2023 17:49:08.630,-0.129,0.398,0.602
5/1/2023 17:49:08.640,-0.172,0.371,0.57
5/1/2023 17:49:08.650,-0.215,0.344,0.535
5/1/2023 17:49:08.660,-0.246,0.332,0.527
5/1/2023 17:49:08.670,-0.262,0.344,0.539
5/1/2023 17:49:08.680,-0.266,0.363,0.547
5/1/2023 17:49:08.690,-0.266,0.383,0.547
5/1/2023 17:49:08.700,-0.285,0.402,0.535
5/1/2023 17:49:08.710,-0.301,0.422,0.527
5/1/2023 17:49:08.720,-0.305,0.438,0.52
5/1/2023 17:49:08.730,-0.293,0.445,0.535
5/1/2023 17:49:08.740,-0.266,0.449,0.566
5/1/2023 17:49:08.750,-0.242,0.457,0.598
5/1/2023 17:49:08.760,-0.246,0.473,0.629
5/1/2023 17:49:08.770,-0.254,0.484,0.668
5/1/2023 17:49:08.780,-0.266,0.512,0.691
5/1/2023 17:49:08.790,-0.27,0.543,0.711
5/1/2023 17:49:08.800,-0.273,0.578,0.73
5/1/2023 17:49:08.810,-0.285,0.602,0.738
5/1/2023 17:49:08.820,-0.285,0.633,0.734
5/1/2023 17:49:08.830,-0.289,0.707,0.742
5/1/2023 17:49:08.840,-0.289,0.797,0.754
5/1/2023 17:49:08.850,-0.293,0.875,0.773
5/1/2023 17:49:08.860,-0.301,0.926,0.801
5/1/2023 17:49:08.870,-0.324,0.922,0.832
5/1/2023 17:49:08.880,-0.352,0.871,0.863
5/1/2023 17:49:08.890,-0.383,0.809,0.891
5/1/2023 17:49:08.900,-0.402,0.758,0.898
5/1/2023 17:49:08.910,-0.422,0.715,0.883
5/1/2023 17:49:08.920,-0.441,0.703,0.871
5/1/2023 17:49:08.930,-0.449,0.691,0.84
5/1/2023 17:49:08.940,-0.434,0.668,0.801
5/1/2023 17:49:08.950,-0.406,0.652,0.762
5/1/2023 17:49:08.960,-0.375,0.641,0.707
5/1/2023 17:49:08.970,-0.344,0.641,0.668
5/1/2023 17:49:08.980,-0.324,0.637,0.656
5/1/2023 17:49:08.990,-0.313,0.617,0.66
5/1/2023 17:49:09.000,-0.309,0.602,0.672
5/1/2023 17:49:09.010,-0.289,0.582,0.684
5/1/2023 17:49:09.020,-0.27,0.582,0.688
5/1/2023 17:49:09.030,-0.242,0.59,0.699
5/1/2023 17:49:09.040,-0.211,0.648,0.727
5/1/2023 17:49:09.050,-0.164,0.734,0.762
5/1/2023 17:49:09.060,-0.102,0.805,0.777
5/1/2023 17:49:09.070,-0.043,0.871,0.824
5/1/2023 17:49:09.080,0.023,0.934,0.883
5/1/2023 17:49:09.090,0.078,0.914,0.945
5/1/2023 17:49:09.100,0.09,0.789,0.977
5/1/2023 17:49:09.110,0.09,0.605,0.965
5/1/2023 17:49:09.120,0.121,0.473,0.941
5/1/2023 17:49:09.130,0.188,0.434,0.914
5/1/2023 17:49:09.140,0.234,0.488,0.898
5/1/2023 17:49:09.150,0.25,0.57,0.871
5/1/2023 17:49:09.160,0.227,0.648,0.852
5/1/2023 17:49:09.170,0.172,0.727,0.848
5/1/2023 17:49:09.180,0.129,0.781,0.867
5/1/2023 17:49:09.190,0.121,0.762,0.891
5/1/2023 17:49:09.200,0.105,0.703,0.887
5/1/2023 17:49:09.210,0.094,0.633,0.875
5/1/2023 17:49:09.220,0.109,0.598,0.832
5/1/2023 17:49:09.230,0.117,0.594,0.715
5/1/2023 17:49:09.240,0.105,0.621,0.559
5/1/2023 17:49:09.250,0.117,0.684,0.391
5/1/2023 17:49:09.260,0.129,0.766,0.219
5/1/2023 17:49:09.270,0.133,0.852,0.055
5/1/2023 17:49:09.280,0.133,0.941,-0.109
5/1/2023 17:49:09.290,0.121,1.008,-0.234
5/1/2023 17:49:09.300,0.164,1.066,-0.32
5/1/2023 17:49:09.310,0.262,1.109,-0.387
5/1/2023 17:49:09.320,0.379,1.125,-0.453
5/1/2023 17:49:09.330,0.465,1.129,-0.543
5/1/2023 17:49:09.340,0.512,1.121,-0.637
5/1/2023 17:49:09.350,0.559,1.086,-0.738
5/1/2023 17:49:09.360,0.609,1.004,-0.828
5/1/2023 17:49:09.370,0.645,0.922,-0.879
5/1/2023 17:49:09.380,0.641,0.883,-0.875
5/1/2023 17:49:09.390,0.629,0.844,-0.836
5/1/2023 17:49:09.400,0.621,0.785,-0.805
5/1/2023 17:49:09.410,0.629,0.727,-0.781
5/1/2023 17:49:09.420,0.625,0.699,-0.781
5/1/2023 17:49:09.430,0.605,0.719,-0.793
5/1/2023 17:49:09.440,0.547,0.762,-0.805
5/1/2023 17:49:09.450,0.461,0.793,-0.805
5/1/2023 17:49:09.460,0.34,0.824,-0.77
5/1/2023 17:49:09.470,0.23,0.875,-0.707
5/1/2023 17:49:09.480,0.152,0.93,-0.625
5/1/2023 17:49:09.490,0.129,0.984,-0.551
5/1/2023 17:49:09.500,0.121,1.031,-0.496
5/1/2023 17:49:09.510,0.152,1.055,-0.465
5/1/2023 17:49:09.520,0.188,1.063,-0.457
5/1/2023 17:49:09.530,0.215,1.063,-0.441
5/1/2023 17:49:09.540,0.211,1.035,-0.418
5/1/2023 17:49:09.550,0.18,1,-0.41
5/1/2023 17:49:09.560,0.137,0.98,-0.41
5/1/2023 17:49:09.570,0.094,0.953,-0.398
5/1/2023 17:49:09.580,0.047,0.918,-0.371
5/1/2023 17:49:09.590,0,0.898,-0.344
5/1/2023 17:49:09.600,-0.047,0.883,-0.332
5/1/2023 17:49:09.610,-0.086,0.859,-0.328
5/1/2023 17:49:09.620,-0.117,0.836,-0.324
5/1/2023 17:49:09.630,-0.145,0.816,-0.324
5/1/2023 17:49:09.640,-0.164,0.793,-0.324
5/1/2023 17:49:09.650,-0.168,0.766,-0.324
5/1/2023 17:49:09.660,-0.172,0.742,-0.324
5/1/2023 17:49:09.670,-0.168,0.723,-0.32
5/1/2023 17:49:09.680,-0.156,0.707,-0.324
5/1/2023 17:49:09.690,-0.141,0.688,-0.332
5/1/2023 17:49:09.700,-0.117,0.684,-0.332
5/1/2023 17:49:09.710,-0.098,0.691,-0.344
5/1/2023 17:49:09.720,-0.066,0.699,-0.355
5/1/2023 17:49:09.730,-0.047,0.703,-0.363
5/1/2023 17:49:09.740,-0.031,0.711,-0.375
5/1/2023 17:49:09.750,-0.031,0.715,-0.371
5/1/2023 17:49:09.760,-0.039,0.715,-0.363
5/1/2023 17:49:09.770,-0.043,0.734,-0.363
5/1/2023 17:49:09.780,-0.051,0.742,-0.371
5/1/2023 17:49:09.790,-0.059,0.742,-0.383
5/1/2023 17:49:09.800,-0.059,0.75,-0.391
5/1/2023 17:49:09.810,-0.07,0.77,-0.398
5/1/2023 17:49:09.820,-0.074,0.789,-0.406
5/1/2023 17:49:09.830,-0.074,0.809,-0.422
5/1/2023 17:49:09.840,-0.07,0.844,-0.445
5/1/2023 17:49:09.850,-0.066,0.867,-0.465
5/1/2023 17:49:09.860,-0.059,0.879,-0.48
5/1/2023 17:49:09.870,-0.066,0.887,-0.488
5/1/2023 17:49:09.880,-0.086,0.891,-0.496
5/1/2023 17:49:09.890,-0.102,0.918,-0.5
5/1/2023 17:49:09.900,-0.109,0.941,-0.512
5/1/2023 17:49:09.910,-0.105,0.957,-0.531
5/1/2023 17:49:09.920,-0.094,0.965,-0.543
5/1/2023 17:49:09.930,-0.07,0.973,-0.574
5/1/2023 17:49:09.940,-0.051,0.992,-0.613
5/1/2023 17:49:09.950,-0.016,1.012,-0.645
5/1/2023 17:49:09.960,0.016,1.027,-0.668
5/1/2023 17:49:09.970,0.055,1.035,-0.676
5/1/2023 17:49:09.980,0.086,1.031,-0.688
5/1/2023 17:49:09.990,0.121,1.023,-0.699
5/1/2023 17:49:10.000,0.137,1.016,-0.719
5/1/2023 17:49:10.010,0.152,0.996,-0.727
5/1/2023 17:49:10.020,0.152,0.984,-0.738
5/1/2023 17:49:10.030,0.145,0.98,-0.738
5/1/2023 17:49:10.040,0.117,0.973,-0.727
5/1/2023 17:49:10.050,0.078,0.973,-0.695
5/1/2023 17:49:10.060,0.02,0.965,-0.664
5/1/2023 17:49:10.070,-0.039,0.961,-0.641
5/1/2023 17:49:10.080,-0.105,0.945,-0.613
5/1/2023 17:49:10.090,-0.176,0.918,-0.582
5/1/2023 17:49:10.100,-0.23,0.887,-0.551
5/1/2023 17:49:10.110,-0.27,0.852,-0.52
5/1/2023 17:49:10.120,-0.297,0.82,-0.496
5/1/2023 17:49:10.130,-0.301,0.781,-0.477
5/1/2023 17:49:10.140,-0.297,0.758,-0.465
5/1/2023 17:49:10.150,-0.277,0.742,-0.457
5/1/2023 17:49:10.160,-0.242,0.73,-0.441
5/1/2023 17:49:10.170,-0.203,0.734,-0.43
5/1/2023 17:49:10.180,-0.168,0.738,-0.418
5/1/2023 17:49:10.190,-0.129,0.742,-0.418
5/1/2023 17:49:10.200,-0.094,0.746,-0.41
5/1/2023 17:49:10.210,-0.063,0.742,-0.41
5/1/2023 17:49:10.220,-0.031,0.73,-0.414
5/1/2023 17:49:10.230,-0.004,0.715,-0.41
5/1/2023 17:49:10.240,0.004,0.711,-0.402
5/1/2023 17:49:10.250,0,0.707,-0.398
5/1/2023 17:49:10.260,-0.004,0.719,-0.395
5/1/2023 17:49:10.270,-0.004,0.73,-0.391
5/1/2023 17:49:10.280,0,0.742,-0.391
5/1/2023 17:49:10.290,0,0.742,-0.398
5/1/2023 17:49:10.300,0.012,0.75,-0.391
5/1/2023 17:49:10.310,0.02,0.766,-0.383
5/1/2023 17:49:10.320,0.02,0.785,-0.379
5/1/2023 17:49:10.330,0.02,0.797,-0.367
5/1/2023 17:49:10.340,0.027,0.813,-0.355
5/1/2023 17:49:10.350,0.039,0.84,-0.367
5/1/2023 17:49:10.360,0.055,0.875,-0.379
5/1/2023 17:49:10.370,0.063,0.906,-0.367
5/1/2023 17:49:10.380,0.066,0.949,-0.367
5/1/2023 17:49:10.390,0.063,0.992,-0.367
5/1/2023 17:49:10.400,0.051,1.027,-0.371
5/1/2023 17:49:10.410,0.059,1.047,-0.398
5/1/2023 17:49:10.420,0.074,1.066,-0.438
5/1/2023 17:49:10.430,0.09,1.109,-0.477
5/1/2023 17:49:10.440,0.086,1.137,-0.508
5/1/2023 17:49:10.450,0.074,1.137,-0.547
5/1/2023 17:49:10.460,0.063,1.145,-0.594
5/1/2023 17:49:10.470,0.027,1.152,-0.645
5/1/2023 17:49:10.480,-0.027,1.152,-0.695
5/1/2023 17:49:10.490,-0.082,1.168,-0.738
5/1/2023 17:49:10.500,-0.145,1.191,-0.793
5/1/2023 17:49:10.510,-0.16,1.219,-0.848
5/1/2023 17:49:10.520,-0.148,1.262,-0.918
5/1/2023 17:49:10.530,-0.121,1.277,-0.992
5/1/2023 17:49:10.540,-0.086,1.266,-1.059
5/1/2023 17:49:10.550,-0.047,1.262,-1.102
5/1/2023 17:49:10.560,-0.02,1.25,-1.121
5/1/2023 17:49:10.570,-0.016,1.223,-1.113
5/1/2023 17:49:10.580,-0.031,1.176,-1.055
5/1/2023 17:49:10.590,-0.07,1.086,-0.957
5/1/2023 17:49:10.600,-0.121,0.969,-0.855
5/1/2023 17:49:10.610,-0.172,0.867,-0.75
5/1/2023 17:49:10.620,-0.219,0.777,-0.656
5/1/2023 17:49:10.630,-0.258,0.691,-0.59
5/1/2023 17:49:10.640,-0.289,0.609,-0.551
5/1/2023 17:49:10.650,-0.324,0.535,-0.523
5/1/2023 17:49:10.660,-0.344,0.469,-0.504
5/1/2023 17:49:10.670,-0.34,0.434,-0.492
5/1/2023 17:49:10.680,-0.332,0.367,-0.457
5/1/2023 17:49:10.690,-0.32,0.285,-0.414
5/1/2023 17:49:10.700,-0.32,0.23,-0.395
5/1/2023 17:49:10.710,-0.316,0.234,-0.395
5/1/2023 17:49:10.720,-0.301,0.258,-0.398
5/1/2023 17:49:10.730,-0.281,0.262,-0.398
5/1/2023 17:49:10.740,-0.266,0.266,-0.422
5/1/2023 17:49:10.750,-0.254,0.285,-0.449
5/1/2023 17:49:10.760,-0.246,0.297,-0.453
5/1/2023 17:49:10.770,-0.234,0.293,-0.43
5/1/2023 17:49:10.780,-0.23,0.301,-0.41
5/1/2023 17:49:10.790,-0.23,0.34,-0.371
5/1/2023 17:49:10.800,-0.227,0.398,-0.289
5/1/2023 17:49:10.810,-0.219,0.426,-0.191
5/1/2023 17:49:10.820,-0.219,0.438,-0.098
5/1/2023 17:49:10.830,-0.242,0.43,-0.047
5/1/2023 17:49:10.840,-0.277,0.43,-0.016
5/1/2023 17:49:10.850,-0.324,0.414,-0.031
5/1/2023 17:49:10.860,-0.375,0.387,-0.082
5/1/2023 17:49:10.870,-0.438,0.41,-0.121
5/1/2023 17:49:10.880,-0.504,0.5,-0.125
5/1/2023 17:49:10.890,-0.563,0.641,-0.098
5/1/2023 17:49:10.900,-0.609,0.809,-0.027
5/1/2023 17:49:10.910,-0.629,0.949,0.051
5/1/2023 17:49:10.920,-0.637,1.055,0.141
5/1/2023 17:49:10.930,-0.645,1.113,0.27
5/1/2023 17:49:10.940,-0.664,1.129,0.395
5/1/2023 17:49:10.950,-0.707,1.137,0.438
5/1/2023 17:49:10.960,-0.77,1.105,0.352
5/1/2023 17:49:10.970,-0.855,1.094,0.277
5/1/2023 17:49:10.980,-0.926,1.105,0.305
5/1/2023 17:49:10.990,-0.934,1.051,0.414
5/1/2023 17:49:11.000,-0.875,0.973,0.59
5/1/2023 17:49:11.010,-0.766,0.867,0.789
5/1/2023 17:49:11.020,-0.691,0.742,0.957
5/1/2023 17:49:11.030,-0.672,0.668,1.063
5/1/2023 17:49:11.040,-0.691,0.703,1.098
5/1/2023 17:49:11.050,-0.719,0.797,1.078
5/1/2023 17:49:11.060,-0.723,0.891,1.027
5/1/2023 17:49:11.070,-0.711,0.961,0.965
5/1/2023 17:49:11.080,-0.691,0.961,0.918
5/1/2023 17:49:11.090,-0.664,0.91,0.871
5/1/2023 17:49:11.100,-0.652,0.813,0.836
5/1/2023 17:49:11.110,-0.629,0.73,0.797
5/1/2023 17:49:11.120,-0.59,0.66,0.75
5/1/2023 17:49:11.130,-0.543,0.586,0.691
5/1/2023 17:49:11.140,-0.504,0.504,0.633
5/1/2023 17:49:11.150,-0.465,0.418,0.594
5/1/2023 17:49:11.160,-0.441,0.328,0.539
5/1/2023 17:49:11.170,-0.426,0.254,0.484
5/1/2023 17:49:11.180,-0.418,0.199,0.438
5/1/2023 17:49:11.190,-0.41,0.168,0.395
5/1/2023 17:49:11.200,-0.406,0.152,0.355
5/1/2023 17:49:11.210,-0.398,0.133,0.309
5/1/2023 17:49:11.220,-0.383,0.121,0.262
5/1/2023 17:49:11.230,-0.375,0.113,0.23
5/1/2023 17:49:11.240,-0.367,0.137,0.215
5/1/2023 17:49:11.250,-0.359,0.164,0.191
5/1/2023 17:49:11.260,-0.34,0.199,0.184
5/1/2023 17:49:11.270,-0.309,0.227,0.18
5/1/2023 17:49:11.280,-0.285,0.258,0.184
5/1/2023 17:49:11.290,-0.25,0.32,0.203
5/1/2023 17:49:11.300,-0.223,0.371,0.215
5/1/2023 17:49:11.310,-0.195,0.398,0.215
5/1/2023 17:49:11.320,-0.156,0.414,0.219
5/1/2023 17:49:11.330,-0.117,0.414,0.219
5/1/2023 17:49:11.340,-0.078,0.406,0.211
5/1/2023 17:49:11.350,-0.047,0.391,0.207
5/1/2023 17:49:11.360,-0.02,0.422,0.223
5/1/2023 17:49:11.370,0.004,0.461,0.227
5/1/2023 17:49:11.380,0.031,0.477,0.219
5/1/2023 17:49:11.390,0.074,0.477,0.219
5/1/2023 17:49:11.400,0.141,0.449,0.215
5/1/2023 17:49:11.410,0.215,0.391,0.215
5/1/2023 17:49:11.420,0.285,0.34,0.219
5/1/2023 17:49:11.430,0.348,0.277,0.215
5/1/2023 17:49:11.440,0.422,0.23,0.215
5/1/2023 17:49:11.450,0.508,0.188,0.207
5/1/2023 17:49:11.460,0.609,0.145,0.203
5/1/2023 17:49:11.470,0.754,0.148,0.242
5/1/2023 17:49:11.480,0.941,0.25,0.352
5/1/2023 17:49:11.490,1.145,0.402,0.48
5/1/2023 17:49:11.500,1.336,0.531,0.563
5/1/2023 17:49:11.510,1.48,0.625,0.629
5/1/2023 17:49:11.520,1.539,0.703,0.676
5/1/2023 17:49:11.530,1.535,0.727,0.652
5/1/2023 17:49:11.540,1.504,0.664,0.578
5/1/2023 17:49:11.550,1.473,0.531,0.48
5/1/2023 17:49:11.560,1.461,0.379,0.387
5/1/2023 17:49:11.570,1.484,0.246,0.305
5/1/2023 17:49:11.580,1.523,0.148,0.23
5/1/2023 17:49:11.590,1.574,0.102,0.172
5/1/2023 17:49:11.600,1.625,0.082,0.133
5/1/2023 17:49:11.610,1.684,0.098,0.117
5/1/2023 17:49:11.620,1.762,0.148,0.117
5/1/2023 17:49:11.630,1.844,0.238,0.141
5/1/2023 17:49:11.640,1.91,0.367,0.172
5/1/2023 17:49:11.650,1.926,0.512,0.203
5/1/2023 17:49:11.660,1.871,0.645,0.227
5/1/2023 17:49:11.670,1.75,0.754,0.223
5/1/2023 17:49:11.680,1.598,0.84,0.191
5/1/2023 17:49:11.690,1.453,0.898,0.145
5/1/2023 17:49:11.700,1.324,0.938,0.098
5/1/2023 17:49:11.710,1.215,0.953,0.074
5/1/2023 17:49:11.720,1.121,0.945,0.082
5/1/2023 17:49:11.730,1.063,0.906,0.109
5/1/2023 17:49:11.740,1.039,0.816,0.133
5/1/2023 17:49:11.750,1.031,0.699,0.148
5/1/2023 17:49:11.760,1.051,0.594,0.176
5/1/2023 17:49:11.770,1.066,0.512,0.207
5/1/2023 17:49:11.780,1.082,0.445,0.23
5/1/2023 17:49:11.790,1.098,0.406,0.258
5/1/2023 17:49:11.800,1.121,0.391,0.293
5/1/2023 17:49:11.810,1.141,0.387,0.336
5/1/2023 17:49:11.820,1.152,0.391,0.367
5/1/2023 17:49:11.830,1.148,0.402,0.395
5/1/2023 17:49:11.840,1.137,0.441,0.41
5/1/2023 17:49:11.850,1.137,0.492,0.426
5/1/2023 17:49:11.860,1.152,0.543,0.434
5/1/2023 17:49:11.870,1.18,0.59,0.438
5/1/2023 17:49:11.880,1.215,0.629,0.43
5/1/2023 17:49:11.890,1.254,0.668,0.406
5/1/2023 17:49:11.900,1.293,0.695,0.391
5/1/2023 17:49:11.910,1.328,0.703,0.359
5/1/2023 17:49:11.920,1.34,0.695,0.297
5/1/2023 17:49:11.930,1.324,0.672,0.242
5/1/2023 17:49:11.940,1.316,0.648,0.203
5/1/2023 17:49:11.950,1.34,0.641,0.195
5/1/2023 17:49:11.960,1.383,0.629,0.203
5/1/2023 17:49:11.970,1.43,0.621,0.211
5/1/2023 17:49:11.980,1.469,0.617,0.227
5/1/2023 17:49:11.990,1.508,0.609,0.234
5/1/2023 17:49:12.000,1.527,0.586,0.227
5/1/2023 17:49:12.010,1.57,0.551,0.215
5/1/2023 17:49:12.020,1.609,0.512,0.18
5/1/2023 17:49:12.030,1.641,0.473,0.141
5/1/2023 17:49:12.040,1.664,0.441,0.102
5/1/2023 17:49:12.050,1.68,0.422,0.055
5/1/2023 17:49:12.060,1.68,0.395,0.012
5/1/2023 17:49:12.070,1.68,0.359,-0.023
5/1/2023 17:49:12.080,1.68,0.336,-0.051
5/1/2023 17:49:12.090,1.648,0.305,-0.063
5/1/2023 17:49:12.100,1.586,0.281,-0.07
5/1/2023 17:49:12.110,1.496,0.25,-0.066
5/1/2023 17:49:12.120,1.406,0.223,-0.055
5/1/2023 17:49:12.130,1.316,0.207,-0.043
5/1/2023 17:49:12.140,1.23,0.203,-0.027
5/1/2023 17:49:12.150,1.145,0.195,-0.016
5/1/2023 17:49:12.160,1.066,0.199,0.008
5/1/2023 17:49:12.170,1.012,0.199,0.039
5/1/2023 17:49:12.180,0.984,0.207,0.059
5/1/2023 17:49:12.190,0.969,0.223,0.063
5/1/2023 17:49:12.200,0.938,0.227,0.066
5/1/2023 17:49:12.210,0.902,0.23,0.047
5/1/2023 17:49:12.220,0.871,0.23,0.039
5/1/2023 17:49:12.230,0.848,0.23,0.027
5/1/2023 17:49:12.240,0.859,0.238,0.031
5/1/2023 17:49:12.250,0.891,0.242,0.016
5/1/2023 17:49:12.260,0.93,0.242,0
5/1/2023 17:49:12.270,0.961,0.234,-0.027
5/1/2023 17:49:12.280,0.969,0.219,-0.051
5/1/2023 17:49:12.290,0.957,0.207,-0.07
5/1/2023 17:49:12.300,0.938,0.199,-0.086
5/1/2023 17:49:12.310,0.922,0.195,-0.098
5/1/2023 17:49:12.320,0.898,0.191,-0.109
5/1/2023 17:49:12.330,0.875,0.176,-0.113
5/1/2023 17:49:12.340,0.863,0.168,-0.113
5/1/2023 17:49:12.350,0.844,0.16,-0.105
5/1/2023 17:49:12.360,0.84,0.156,-0.098
5/1/2023 17:49:12.370,0.84,0.16,-0.086
5/1/2023 17:49:12.380,0.84,0.164,-0.078
5/1/2023 17:49:12.390,0.828,0.172,-0.066
5/1/2023 17:49:12.400,0.813,0.176,-0.059
5/1/2023 17:49:12.410,0.789,0.184,-0.047
5/1/2023 17:49:12.420,0.758,0.18,-0.031
5/1/2023 17:49:12.430,0.742,0.176,-0.016
5/1/2023 17:49:12.440,0.762,0.188,0
5/1/2023 17:49:12.450,0.805,0.199,0.023
5/1/2023 17:49:12.460,0.844,0.207,0.039
5/1/2023 17:49:12.470,0.867,0.219,0.055
5/1/2023 17:49:12.480,0.879,0.23,0.063
5/1/2023 17:49:12.490,0.902,0.246,0.066
5/1/2023 17:49:12.500,0.898,0.262,0.066
5/1/2023 17:49:12.510,0.891,0.266,0.07
5/1/2023 17:49:12.520,0.891,0.27,0.078
5/1/2023 17:49:12.530,0.91,0.285,0.098
5/1/2023 17:49:12.540,0.949,0.316,0.129
5/1/2023 17:49:12.550,1,0.359,0.172
5/1/2023 17:49:12.560,1.063,0.395,0.227
5/1/2023 17:49:12.570,1.137,0.438,0.273
5/1/2023 17:49:12.580,1.215,0.473,0.305
5/1/2023 17:49:12.590,1.273,0.492,0.332
5/1/2023 17:49:12.600,1.305,0.48,0.324
5/1/2023 17:49:12.610,1.305,0.441,0.301
5/1/2023 17:49:12.620,1.27,0.41,0.262
5/1/2023 17:49:12.630,1.207,0.391,0.215
5/1/2023 17:49:12.640,1.133,0.391,0.168
5/1/2023 17:49:12.650,1.047,0.387,0.141
5/1/2023 17:49:12.660,0.98,0.379,0.141
5/1/2023 17:49:12.670,0.934,0.352,0.141
5/1/2023 17:49:12.680,0.906,0.309,0.148
5/1/2023 17:49:12.690,0.902,0.25,0.164
5/1/2023 17:49:12.700,0.926,0.207,0.18
5/1/2023 17:49:12.710,0.965,0.176,0.199
5/1/2023 17:49:12.720,1.012,0.172,0.219
5/1/2023 17:49:12.730,1.066,0.176,0.238
5/1/2023 17:49:12.740,1.109,0.195,0.254
5/1/2023 17:49:12.750,1.133,0.227,0.27
5/1/2023 17:49:12.760,1.137,0.254,0.27
5/1/2023 17:49:12.770,1.133,0.285,0.27
5/1/2023 17:49:12.780,1.125,0.305,0.27
5/1/2023 17:49:12.790,1.133,0.332,0.273
5/1/2023 17:49:12.800,1.156,0.355,0.289
5/1/2023 17:49:12.810,1.184,0.375,0.309
5/1/2023 17:49:12.820,1.207,0.387,0.332
5/1/2023 17:49:12.830,1.199,0.398,0.348
5/1/2023 17:49:12.840,1.176,0.41,0.352
5/1/2023 17:49:12.850,1.137,0.434,0.348
5/1/2023 17:49:12.860,1.109,0.461,0.34
5/1/2023 17:49:12.870,1.098,0.5,0.344
5/1/2023 17:49:12.880,1.105,0.543,0.34
5/1/2023 17:49:12.890,1.121,0.594,0.344
5/1/2023 17:49:12.900,1.148,0.641,0.344
5/1/2023 17:49:12.910,1.168,0.68,0.348
5/1/2023 17:49:12.920,1.168,0.699,0.348
5/1/2023 17:49:12.930,1.152,0.699,0.316
5/1/2023 17:49:12.940,1.117,0.684,0.258
5/1/2023 17:49:12.950,1.105,0.676,0.219
5/1/2023 17:49:12.960,1.152,0.684,0.195
5/1/2023 17:49:12.970,1.262,0.707,0.184
5/1/2023 17:49:12.980,1.41,0.734,0.215
5/1/2023 17:49:12.990,1.551,0.77,0.281
5/1/2023 17:49:13.000,1.637,0.801,0.34
5/1/2023 17:49:13.010,1.645,0.785,0.352
5/1/2023 17:49:13.020,1.559,0.73,0.32
5/1/2023 17:49:13.030,1.461,0.645,0.273
5/1/2023 17:49:13.040,1.402,0.574,0.238
5/1/2023 17:49:13.050,1.398,0.52,0.199
5/1/2023 17:49:13.060,1.43,0.5,0.168
5/1/2023 17:49:13.070,1.457,0.488,0.133
5/1/2023 17:49:13.080,1.484,0.48,0.098
5/1/2023 17:49:13.090,1.52,0.48,0.074
5/1/2023 17:49:13.100,1.59,0.492,0.074
5/1/2023 17:49:13.110,1.676,0.48,0.094
5/1/2023 17:49:13.120,1.75,0.449,0.109
5/1/2023 17:49:13.130,1.758,0.414,0.117
5/1/2023 17:49:13.140,1.684,0.363,0.113
5/1/2023 17:49:13.150,1.555,0.313,0.105
5/1/2023 17:49:13.160,1.422,0.27,0.086
5/1/2023 17:49:13.170,1.316,0.234,0.059
5/1/2023 17:49:13.180,1.227,0.211,0.031
5/1/2023 17:49:13.190,1.16,0.199,0.008
5/1/2023 17:49:13.200,1.094,0.191,-0.008
5/1/2023 17:49:13.210,1.031,0.184,-0.02
5/1/2023 17:49:13.220,0.992,0.188,-0.008
5/1/2023 17:49:13.230,0.984,0.195,0.012
5/1/2023 17:49:13.240,1.016,0.211,0.016
5/1/2023 17:49:13.250,1.047,0.23,0.012
5/1/2023 17:49:13.260,1.055,0.234,0.004
5/1/2023 17:49:13.270,1.051,0.234,-0.004
5/1/2023 17:49:13.280,1.043,0.246,-0.02
5/1/2023 17:49:13.290,1.023,0.254,-0.043
5/1/2023 17:49:13.300,1.004,0.254,-0.059
5/1/2023 17:49:13.310,0.977,0.238,-0.07
5/1/2023 17:49:13.320,0.949,0.219,-0.074
5/1/2023 17:49:13.330,0.93,0.203,-0.074
5/1/2023 17:49:13.340,0.926,0.195,-0.074
5/1/2023 17:49:13.350,0.934,0.184,-0.074
5/1/2023 17:49:13.360,0.922,0.172,-0.07
5/1/2023 17:49:13.370,0.906,0.148,-0.066
5/1/2023 17:49:13.380,0.891,0.133,-0.066
5/1/2023 17:49:13.390,0.867,0.121,-0.066
5/1/2023 17:49:13.400,0.844,0.109,-0.063
5/1/2023 17:49:13.410,0.82,0.102,-0.066
5/1/2023 17:49:13.420,0.789,0.102,-0.063
5/1/2023 17:49:13.430,0.75,0.105,-0.055
5/1/2023 17:49:13.440,0.703,0.098,-0.043
5/1/2023 17:49:13.450,0.664,0.105,-0.02
5/1/2023 17:49:13.460,0.648,0.117,0.008
5/1/2023 17:49:13.470,0.68,0.137,0.043
5/1/2023 17:49:13.480,0.723,0.152,0.07
5/1/2023 17:49:13.490,0.777,0.164,0.09
5/1/2023 17:49:13.500,0.813,0.184,0.098
5/1/2023 17:49:13.510,0.852,0.211,0.109
5/1/2023 17:49:13.520,0.852,0.242,0.125
5/1/2023 17:49:13.530,0.828,0.258,0.141
5/1/2023 17:49:13.540,0.813,0.266,0.148
5/1/2023 17:49:13.550,0.836,0.285,0.164
5/1/2023 17:49:13.560,0.887,0.309,0.188
5/1/2023 17:49:13.570,0.938,0.332,0.211
5/1/2023 17:49:13.580,0.996,0.355,0.234
5/1/2023 17:49:13.590,1.07,0.371,0.254
5/1/2023 17:49:13.600,1.152,0.375,0.27
5/1/2023 17:49:13.610,1.238,0.375,0.266
5/1/2023 17:49:13.620,1.32,0.375,0.246
5/1/2023 17:49:13.630,1.367,0.363,0.207
5/1/2023 17:49:13.640,1.375,0.352,0.18
5/1/2023 17:49:13.650,1.336,0.344,0.156
5/1/2023 17:49:13.660,1.258,0.348,0.133
5/1/2023 17:49:13.670,1.164,0.355,0.137
5/1/2023 17:49:13.680,1.086,0.348,0.156
5/1/2023 17:49:13.690,1.031,0.332,0.172
5/1/2023 17:49:13.700,0.988,0.289,0.195
5/1/2023 17:49:13.710,0.969,0.25,0.215
5/1/2023 17:49:13.720,0.953,0.207,0.23
5/1/2023 17:49:13.730,0.953,0.176,0.25
5/1/2023 17:49:13.740,0.969,0.156,0.258
5/1/2023 17:49:13.750,0.992,0.168,0.254
5/1/2023 17:49:13.760,1.023,0.184,0.25
5/1/2023 17:49:13.770,1.059,0.211,0.246
5/1/2023 17:49:13.780,1.09,0.246,0.242
5/1/2023 17:49:13.790,1.129,0.285,0.246
5/1/2023 17:49:13.800,1.164,0.316,0.266
5/1/2023 17:49:13.810,1.207,0.344,0.293
5/1/2023 17:49:13.820,1.258,0.371,0.313
5/1/2023 17:49:13.830,1.301,0.398,0.328
5/1/2023 17:49:13.840,1.328,0.418,0.336
5/1/2023 17:49:13.850,1.32,0.438,0.332
5/1/2023 17:49:13.860,1.293,0.449,0.328
5/1/2023 17:49:13.870,1.254,0.469,0.324
5/1/2023 17:49:13.880,1.223,0.488,0.32
5/1/2023 17:49:13.890,1.207,0.508,0.332
5/1/2023 17:49:13.900,1.215,0.539,0.352
5/1/2023 17:49:13.910,1.219,0.57,0.367
5/1/2023 17:49:13.920,1.219,0.605,0.379
5/1/2023 17:49:13.930,1.219,0.637,0.387
5/1/2023 17:49:13.940,1.215,0.672,0.387
5/1/2023 17:49:13.950,1.207,0.699,0.371
5/1/2023 17:49:13.960,1.188,0.711,0.336
5/1/2023 17:49:13.970,1.172,0.707,0.293
5/1/2023 17:49:13.980,1.203,0.719,0.266
5/1/2023 17:49:13.990,1.293,0.742,0.246
5/1/2023 17:49:14.000,1.406,0.758,0.238
5/1/2023 17:49:14.010,1.531,0.773,0.254
5/1/2023 17:49:14.020,1.613,0.785,0.277
5/1/2023 17:49:14.030,1.621,0.766,0.281
5/1/2023 17:49:14.040,1.555,0.719,0.254
5/1/2023 17:49:14.050,1.461,0.652,0.219
5/1/2023 17:49:14.060,1.414,0.598,0.191
5/1/2023 17:49:14.070,1.41,0.555,0.18
5/1/2023 17:49:14.080,1.441,0.539,0.176
5/1/2023 17:49:14.090,1.477,0.52,0.168
5/1/2023 17:49:14.100,1.496,0.492,0.145
5/1/2023 17:49:14.110,1.512,0.453,0.121
5/1/2023 17:49:14.120,1.523,0.422,0.098
5/1/2023 17:49:14.130,1.527,0.391,0.074
5/1/2023 17:49:14.140,1.52,0.363,0.047
5/1/2023 17:49:14.150,1.48,0.344,0.02
5/1/2023 17:49:14.160,1.418,0.328,-0.004
5/1/2023 17:49:14.170,1.344,0.309,-0.023
5/1/2023 17:49:14.180,1.273,0.277,-0.027
5/1/2023 17:49:14.190,1.211,0.254,-0.023
5/1/2023 17:49:14.200,1.168,0.238,0.004
5/1/2023 17:49:14.210,1.145,0.227,0.027
5/1/2023 17:49:14.220,1.117,0.215,0.035
5/1/2023 17:49:14.230,1.066,0.203,0.051
5/1/2023 17:49:14.240,1.016,0.195,0.059
5/1/2023 17:49:14.250,0.98,0.195,0.051
5/1/2023 17:49:14.260,0.941,0.195,0.047
5/1/2023 17:49:14.270,0.91,0.195,0.035
5/1/2023 17:49:14.280,0.883,0.199,0.031
5/1/2023 17:49:14.290,0.859,0.207,0.031
5/1/2023 17:49:14.300,0.859,0.219,0.035
5/1/2023 17:49:14.310,0.879,0.227,0.035
5/1/2023 17:49:14.320,0.91,0.234,0.023
5/1/2023 17:49:14.330,0.922,0.234,0.008
5/1/2023 17:49:14.340,0.926,0.23,0
5/1/2023 17:49:14.350,0.93,0.23,-0.012
5/1/2023 17:49:14.360,0.938,0.227,-0.027
5/1/2023 17:49:14.370,0.945,0.219,-0.035
5/1/2023 17:49:14.380,0.949,0.211,-0.055
5/1/2023 17:49:14.390,0.953,0.199,-0.063
5/1/2023 17:49:14.400,0.961,0.188,-0.07
5/1/2023 17:49:14.410,0.965,0.18,-0.074
5/1/2023 17:49:14.420,0.973,0.172,-0.074
5/1/2023 17:49:14.430,0.973,0.176,-0.066
5/1/2023 17:49:14.440,0.961,0.168,-0.066
5/1/2023 17:49:14.450,0.938,0.164,-0.063
5/1/2023 17:49:14.460,0.902,0.164,-0.055
5/1/2023 17:49:14.470,0.855,0.156,-0.043
5/1/2023 17:49:14.480,0.82,0.148,-0.023
5/1/2023 17:49:14.490,0.832,0.164,0.004
5/1/2023 17:49:14.500,0.871,0.188,0.027
5/1/2023 17:49:14.510,0.93,0.207,0.059
5/1/2023 17:49:14.520,0.988,0.238,0.074
5/1/2023 17:49:14.530,1.043,0.27,0.09
5/1/2023 17:49:14.540,1.066,0.305,0.102
5/1/2023 17:49:14.550,1.039,0.324,0.109
5/1/2023 17:49:14.560,0.98,0.328,0.125
5/1/2023 17:49:14.570,0.945,0.316,0.133
5/1/2023 17:49:14.580,0.953,0.309,0.141
5/1/2023 17:49:14.590,0.988,0.305,0.145
5/1/2023 17:49:14.600,1.035,0.309,0.152
5/1/2023 17:49:14.610,1.086,0.32,0.164
5/1/2023 17:49:14.620,1.137,0.324,0.172
5/1/2023 17:49:14.630,1.184,0.324,0.172
5/1/2023 17:49:14.640,1.219,0.313,0.164
5/1/2023 17:49:14.650,1.227,0.293,0.145
5/1/2023 17:49:14.660,1.199,0.277,0.129
5/1/2023 17:49:14.670,1.137,0.273,0.121
5/1/2023 17:49:14.680,1.047,0.27,0.129
5/1/2023 17:49:14.690,0.953,0.27,0.137
5/1/2023 17:49:14.700,0.867,0.262,0.148
5/1/2023 17:49:14.710,0.797,0.242,0.16
5/1/2023 17:49:14.720,0.746,0.219,0.184
5/1/2023 17:49:14.730,0.707,0.188,0.207
5/1/2023 17:49:14.740,0.691,0.172,0.23
5/1/2023 17:49:14.750,0.695,0.164,0.25
5/1/2023 17:49:14.760,0.715,0.168,0.27
5/1/2023 17:49:14.770,0.742,0.176,0.289
5/1/2023 17:49:14.780,0.766,0.188,0.301
5/1/2023 17:49:14.790,0.785,0.203,0.297
5/1/2023 17:49:14.800,0.805,0.219,0.285
5/1/2023 17:49:14.810,0.855,0.234,0.266
5/1/2023 17:49:14.820,0.914,0.246,0.246
5/1/2023 17:49:14.830,0.98,0.266,0.227
5/1/2023 17:49:14.840,1.059,0.297,0.219
5/1/2023 17:49:14.850,1.141,0.324,0.215
5/1/2023 17:49:14.860,1.227,0.367,0.219
5/1/2023 17:49:14.870,1.316,0.402,0.234
5/1/2023 17:49:14.880,1.379,0.438,0.25
5/1/2023 17:49:14.890,1.41,0.465,0.266
5/1/2023 17:49:14.900,1.41,0.488,0.273
5/1/2023 17:49:14.910,1.387,0.512,0.285
5/1/2023 17:49:14.920,1.363,0.539,0.301
5/1/2023 17:49:14.930,1.348,0.559,0.316
5/1/2023 17:49:14.940,1.34,0.59,0.332
5/1/2023 17:49:14.950,1.344,0.621,0.355
5/1/2023 17:49:14.960,1.348,0.652,0.387
5/1/2023 17:49:14.970,1.355,0.68,0.426
5/1/2023 17:49:14.980,1.359,0.691,0.445
5/1/2023 17:49:14.990,1.328,0.68,0.434
5/1/2023 17:49:15.000,1.266,0.648,0.387
5/1/2023 17:49:15.010,1.254,0.617,0.359
5/1/2023 17:49:15.020,1.297,0.59,0.348
5/1/2023 17:49:15.030,1.375,0.574,0.328
5/1/2023 17:49:15.040,1.461,0.563,0.316
5/1/2023 17:49:15.050,1.512,0.559,0.313
5/1/2023 17:49:15.060,1.52,0.559,0.305
5/1/2023 17:49:15.070,1.48,0.563,0.285
5/1/2023 17:49:15.080,1.406,0.555,0.238
5/1/2023 17:49:15.090,1.34,0.547,0.195
5/1/2023 17:49:15.100,1.309,0.551,0.172
5/1/2023 17:49:15.110,1.313,0.555,0.168
5/1/2023 17:49:15.120,1.352,0.551,0.16
5/1/2023 17:49:15.130,1.41,0.543,0.152
5/1/2023 17:49:15.140,1.469,0.52,0.137
5/1/2023 17:49:15.150,1.52,0.496,0.113
5/1/2023 17:49:15.160,1.566,0.457,0.09
5/1/2023 17:49:15.170,1.59,0.406,0.078
5/1/2023 17:49:15.180,1.582,0.348,0.066
5/1/2023 17:49:15.190,1.531,0.293,0.047
5/1/2023 17:49:15.200,1.453,0.25,0.023
5/1/2023 17:49:15.210,1.352,0.211,0.008
5/1/2023 17:49:15.220,1.242,0.184,0.004
5/1/2023 17:49:15.230,1.148,0.164,-0.012
5/1/2023 17:49:15.240,1.059,0.137,-0.035
5/1/2023 17:49:15.250,0.957,0.105,-0.035
5/1/2023 17:49:15.260,0.875,0.094,-0.023
5/1/2023 17:49:15.270,0.813,0.102,-0.004
5/1/2023 17:49:15.280,0.777,0.117,0.02
5/1/2023 17:49:15.290,0.746,0.148,0.047
5/1/2023 17:49:15.300,0.734,0.172,0.09
5/1/2023 17:49:15.310,0.754,0.203,0.121
5/1/2023 17:49:15.320,0.785,0.234,0.133
5/1/2023 17:49:15.330,0.809,0.262,0.129
5/1/2023 17:49:15.340,0.82,0.273,0.113
5/1/2023 17:49:15.350,0.828,0.285,0.09
5/1/2023 17:49:15.360,0.84,0.293,0.059
5/1/2023 17:49:15.370,0.844,0.297,0.031
5/1/2023 17:49:15.380,0.852,0.297,-0.004
5/1/2023 17:49:15.390,0.867,0.289,-0.02
5/1/2023 17:49:15.400,0.895,0.277,-0.031
5/1/2023 17:49:15.410,0.926,0.262,-0.035
5/1/2023 17:49:15.420,0.965,0.246,-0.039
5/1/2023 17:49:15.430,1,0.23,-0.043
5/1/2023 17:49:15.440,1.039,0.219,-0.051
5/1/2023 17:49:15.450,1.078,0.211,-0.055
5/1/2023 17:49:15.460,1.109,0.203,-0.066
5/1/2023 17:49:15.470,1.121,0.188,-0.07
5/1/2023 17:49:15.480,1.105,0.172,-0.078
5/1/2023 17:49:15.490,1.059,0.16,-0.063
5/1/2023 17:49:15.500,0.98,0.145,-0.039
5/1/2023 17:49:15.510,0.941,0.141,-0.008
5/1/2023 17:49:15.520,0.965,0.156,0.023
5/1/2023 17:49:15.530,1.027,0.199,0.055
5/1/2023 17:49:15.540,1.09,0.23,0.082
5/1/2023 17:49:15.550,1.125,0.246,0.082
5/1/2023 17:49:15.560,1.152,0.258,0.082
5/1/2023 17:49:15.570,1.16,0.277,0.063
5/1/2023 17:49:15.580,1.125,0.305,0.051
5/1/2023 17:49:15.590,1.055,0.313,0.043
5/1/2023 17:49:15.600,0.98,0.297,0.039
5/1/2023 17:49:15.610,0.945,0.289,0.051
5/1/2023 17:49:15.620,0.941,0.309,0.07
5/1/2023 17:49:15.630,0.945,0.328,0.109
5/1/2023 17:49:15.640,0.949,0.348,0.152
5/1/2023 17:49:15.650,0.957,0.367,0.195
5/1/2023 17:49:15.660,0.988,0.375,0.227
5/1/2023 17:49:15.670,1.023,0.379,0.258
5/1/2023 17:49:15.680,1.051,0.375,0.266
5/1/2023 17:49:15.690,1.055,0.352,0.258
5/1/2023 17:49:15.700,1.027,0.32,0.238
5/1/2023 17:49:15.710,0.965,0.293,0.219
5/1/2023 17:49:15.720,0.887,0.277,0.195
5/1/2023 17:49:15.730,0.816,0.258,0.168
5/1/2023 17:49:15.740,0.758,0.238,0.156
5/1/2023 17:49:15.750,0.703,0.211,0.156
5/1/2023 17:49:15.760,0.664,0.18,0.164
5/1/2023 17:49:15.770,0.645,0.152,0.176
5/1/2023 17:49:15.780,0.641,0.129,0.195
5/1/2023 17:49:15.790,0.656,0.125,0.215
5/1/2023 17:49:15.800,0.688,0.113,0.234
5/1/2023 17:49:15.810,0.723,0.125,0.246
5/1/2023 17:49:15.820,0.758,0.145,0.262
5/1/2023 17:49:15.830,0.801,0.172,0.273
5/1/2023 17:49:15.840,0.863,0.207,0.293
5/1/2023 17:49:15.850,0.93,0.242,0.297
5/1/2023 17:49:15.860,0.996,0.273,0.289
5/1/2023 17:49:15.870,1.063,0.301,0.273
5/1/2023 17:49:15.880,1.117,0.336,0.258
5/1/2023 17:49:15.890,1.164,0.379,0.242
5/1/2023 17:49:15.900,1.203,0.41,0.234
5/1/2023 17:49:15.910,1.242,0.453,0.23
5/1/2023 17:49:15.920,1.281,0.492,0.242
5/1/2023 17:49:15.930,1.32,0.531,0.262
5/1/2023 17:49:15.940,1.363,0.563,0.285
5/1/2023 17:49:15.950,1.395,0.578,0.301
5/1/2023 17:49:15.960,1.426,0.59,0.32
5/1/2023 17:49:15.970,1.453,0.613,0.34
5/1/2023 17:49:15.980,1.461,0.645,0.363
5/1/2023 17:49:15.990,1.461,0.676,0.395
5/1/2023 17:49:16.000,1.426,0.695,0.41
5/1/2023 17:49:16.010,1.367,0.676,0.406
5/1/2023 17:49:16.020,1.285,0.625,0.375
5/1/2023 17:49:16.030,1.254,0.586,0.359
5/1/2023 17:49:16.040,1.297,0.566,0.375
5/1/2023 17:49:16.050,1.383,0.563,0.383
5/1/2023 17:49:16.060,1.465,0.563,0.375
5/1/2023 17:49:16.070,1.504,0.559,0.375
5/1/2023 17:49:16.080,1.504,0.574,0.379
5/1/2023 17:49:16.090,1.469,0.59,0.363
5/1/2023 17:49:16.100,1.402,0.605,0.324
5/1/2023 17:49:16.110,1.344,0.609,0.277
5/1/2023 17:49:16.120,1.332,0.609,0.242
5/1/2023 17:49:16.130,1.367,0.613,0.223
5/1/2023 17:49:16.140,1.422,0.609,0.211
5/1/2023 17:49:16.150,1.473,0.609,0.191
5/1/2023 17:49:16.160,1.516,0.59,0.152
5/1/2023 17:49:16.170,1.539,0.551,0.109
5/1/2023 17:49:16.180,1.563,0.492,0.07
5/1/2023 17:49:16.190,1.586,0.434,0.043
5/1/2023 17:49:16.200,1.578,0.375,0.023
5/1/2023 17:49:16.210,1.531,0.316,0.012
5/1/2023 17:49:16.220,1.461,0.262,0.012
5/1/2023 17:49:16.230,1.367,0.223,0.016
5/1/2023 17:49:16.240,1.273,0.199,0.004
5/1/2023 17:49:16.250,1.188,0.168,-0.008
5/1/2023 17:49:16.260,1.105,0.125,-0.016
5/1/2023 17:49:16.270,1.02,0.102,-0.016
5/1/2023 17:49:16.280,0.953,0.098,-0.02
5/1/2023 17:49:16.290,0.902,0.121,-0.012
5/1/2023 17:49:16.300,0.867,0.168,0.004
5/1/2023 17:49:16.310,0.863,0.207,0.031
5/1/2023 17:49:16.320,0.867,0.223,0.055
5/1/2023 17:49:16.330,0.879,0.227,0.078
5/1/2023 17:49:16.340,0.887,0.23,0.082
5/1/2023 17:49:16.350,0.891,0.242,0.078
5/1/2023 17:49:16.360,0.898,0.254,0.066
5/1/2023 17:49:16.370,0.902,0.262,0.043
5/1/2023 17:49:16.380,0.914,0.266,0.023
5/1/2023 17:49:16.390,0.918,0.266,0.008
5/1/2023 17:49:16.400,0.93,0.254,-0.008
5/1/2023 17:49:16.410,0.934,0.242,-0.023
5/1/2023 17:49:16.420,0.949,0.227,-0.035
5/1/2023 17:49:16.430,0.957,0.195,-0.039
5/1/2023 17:49:16.440,0.961,0.176,-0.039
5/1/2023 17:49:16.450,0.973,0.156,-0.039
5/1/2023 17:49:16.460,0.984,0.137,-0.043
5/1/2023 17:49:16.470,0.988,0.129,-0.039
5/1/2023 17:49:16.480,1.004,0.133,-0.035
5/1/2023 17:49:16.490,1,0.137,-0.023
5/1/2023 17:49:16.500,0.977,0.152,-0.016
5/1/2023 17:49:16.510,0.941,0.16,0
5/1/2023 17:49:16.520,0.883,0.164,0.02
5/1/2023 17:49:16.530,0.828,0.16,0.043
5/1/2023 17:49:16.540,0.805,0.156,0.07
5/1/2023 17:49:16.550,0.844,0.164,0.105
5/1/2023 17:49:16.560,0.887,0.188,0.133
5/1/2023 17:49:16.570,0.91,0.207,0.156
5/1/2023 17:49:16.580,0.922,0.219,0.168
5/1/2023 17:49:16.590,0.934,0.227,0.164
5/1/2023 17:49:16.600,0.938,0.23,0.156
5/1/2023 17:49:16.610,0.922,0.223,0.148
5/1/2023 17:49:16.620,0.914,0.211,0.137
5/1/2023 17:49:16.630,0.926,0.211,0.137
5/1/2023 17:49:16.640,0.957,0.223,0.137
5/1/2023 17:49:16.650,0.988,0.238,0.152
5/1/2023 17:49:16.660,1.004,0.258,0.164
5/1/2023 17:49:16.670,1.02,0.266,0.18
5/1/2023 17:49:16.680,1.039,0.27,0.199
5/1/2023 17:49:16.690,1.066,0.27,0.211
5/1/2023 17:49:16.700,1.09,0.27,0.215
5/1/2023 17:49:16.710,1.102,0.273,0.223
5/1/2023 17:49:16.720,1.09,0.277,0.223
5/1/2023 17:49:16.730,1.059,0.277,0.223
5/1/2023 17:49:16.740,1.016,0.277,0.223
5/1/2023 17:49:16.750,0.973,0.273,0.227
5/1/2023 17:49:16.760,0.93,0.266,0.227
5/1/2023 17:49:16.770,0.883,0.25,0.238
5/1/2023 17:49:16.780,0.852,0.227,0.242
5/1/2023 17:49:16.790,0.84,0.207,0.238
5/1/2023 17:49:16.800,0.84,0.203,0.23
5/1/2023 17:49:16.810,0.848,0.195,0.223
5/1/2023 17:49:16.820,0.863,0.191,0.223
5/1/2023 17:49:16.830,0.887,0.195,0.234
5/1/2023 17:49:16.840,0.914,0.203,0.254
5/1/2023 17:49:16.850,0.949,0.219,0.277
5/1/2023 17:49:16.860,0.992,0.238,0.297
5/1/2023 17:49:16.870,1.035,0.262,0.309
5/1/2023 17:49:16.880,1.066,0.277,0.316
5/1/2023 17:49:16.890,1.098,0.301,0.32
5/1/2023 17:49:16.900,1.129,0.324,0.316
5/1/2023 17:49:16.910,1.164,0.344,0.313
5/1/2023 17:49:16.920,1.207,0.367,0.316
5/1/2023 17:49:16.930,1.242,0.395,0.32
5/1/2023 17:49:16.940,1.266,0.414,0.32
5/1/2023 17:49:16.950,1.277,0.438,0.328
5/1/2023 17:49:16.960,1.285,0.453,0.344
5/1/2023 17:49:16.970,1.289,0.473,0.367
5/1/2023 17:49:16.980,1.301,0.496,0.398
5/1/2023 17:49:16.990,1.305,0.531,0.43
5/1/2023 17:49:17.000,1.305,0.563,0.457
5/1/2023 17:49:17.010,1.324,0.598,0.484
5/1/2023 17:49:17.020,1.332,0.629,0.5
5/1/2023 17:49:17.030,1.324,0.648,0.504
5/1/2023 17:49:17.040,1.285,0.637,0.461
5/1/2023 17:49:17.050,1.23,0.613,0.402
5/1/2023 17:49:17.060,1.199,0.59,0.348
5/1/2023 17:49:17.070,1.238,0.586,0.324
5/1/2023 17:49:17.080,1.348,0.594,0.328
5/1/2023 17:49:17.090,1.469,0.605,0.352
5/1/2023 17:49:17.100,1.559,0.609,0.379
5/1/2023 17:49:17.110,1.582,0.605,0.379
5/1/2023 17:49:17.120,1.531,0.582,0.344
5/1/2023 17:49:17.130,1.469,0.559,0.285
5/1/2023 17:49:17.140,1.441,0.539,0.23
5/1/2023 17:49:17.150,1.457,0.52,0.188
5/1/2023 17:49:17.160,1.496,0.504,0.152
5/1/2023 17:49:17.170,1.551,0.492,0.121
5/1/2023 17:49:17.180,1.609,0.473,0.094
5/1/2023 17:49:17.190,1.672,0.449,0.07
5/1/2023 17:49:17.200,1.723,0.414,0.039
5/1/2023 17:49:17.210,1.738,0.383,0.008
5/1/2023 17:49:17.220,1.707,0.344,-0.012
5/1/2023 17:49:17.230,1.629,0.305,-0.027
5/1/2023 17:49:17.240,1.523,0.281,-0.027
5/1/2023 17:49:17.250,1.414,0.262,-0.016
5/1/2023 17:49:17.260,1.305,0.246,-0.008
5/1/2023 17:49:17.270,1.207,0.242,0.004
5/1/2023 17:49:17.280,1.129,0.234,0.031
5/1/2023 17:49:17.290,1.059,0.23,0.066
5/1/2023 17:49:17.300,1.023,0.242,0.098
5/1/2023 17:49:17.310,1.008,0.25,0.105
5/1/2023 17:49:17.320,1,0.258,0.098
5/1/2023 17:49:17.330,0.98,0.262,0.086
5/1/2023 17:49:17.340,0.953,0.258,0.07
5/1/2023 17:49:17.350,0.934,0.258,0.047
5/1/2023 17:49:17.360,0.926,0.254,0.023
5/1/2023 17:49:17.370,0.934,0.254,-0.004
5/1/2023 17:49:17.380,0.949,0.25,-0.023
5/1/2023 17:49:17.390,0.957,0.238,-0.051
5/1/2023 17:49:17.400,0.965,0.23,-0.066
5/1/2023 17:49:17.410,0.965,0.215,-0.078
5/1/2023 17:49:17.420,0.965,0.203,-0.078
5/1/2023 17:49:17.430,0.965,0.191,-0.074
5/1/2023 17:49:17.440,0.973,0.184,-0.07
5/1/2023 17:49:17.450,0.984,0.18,-0.07
5/1/2023 17:49:17.460,0.988,0.168,-0.063
5/1/2023 17:49:17.470,0.98,0.156,-0.055
5/1/2023 17:49:17.480,0.98,0.145,-0.047
5/1/2023 17:49:17.490,0.973,0.137,-0.043
5/1/2023 17:49:17.500,0.941,0.133,-0.043
5/1/2023 17:49:17.510,0.926,0.125,-0.035
5/1/2023 17:49:17.520,0.906,0.121,-0.031
5/1/2023 17:49:17.530,0.875,0.113,-0.023
5/1/2023 17:49:17.540,0.844,0.117,-0.008
5/1/2023 17:49:17.550,0.789,0.117,0.016
5/1/2023 17:49:17.560,0.738,0.105,0.047
5/1/2023 17:49:17.570,0.723,0.113,0.082
5/1/2023 17:49:17.580,0.754,0.129,0.117
5/1/2023 17:49:17.590,0.805,0.152,0.152
5/1/2023 17:49:17.600,0.844,0.168,0.172
5/1/2023 17:49:17.610,0.887,0.176,0.18
5/1/2023 17:49:17.620,0.938,0.18,0.176
5/1/2023 17:49:17.630,0.969,0.188,0.164
5/1/2023 17:49:17.640,0.984,0.195,0.148
5/1/2023 17:49:17.650,0.98,0.199,0.137
5/1/2023 17:49:17.660,0.973,0.195,0.121
5/1/2023 17:49:17.670,0.992,0.195,0.117
5/1/2023 17:49:17.680,1.023,0.195,0.121
5/1/2023 17:49:17.690,1.051,0.195,0.137
5/1/2023 17:49:17.700,1.086,0.203,0.152
5/1/2023 17:49:17.710,1.121,0.219,0.176
5/1/2023 17:49:17.720,1.164,0.238,0.199
5/1/2023 17:49:17.730,1.211,0.266,0.223
5/1/2023 17:49:17.740,1.242,0.281,0.242
5/1/2023 17:49:17.750,1.242,0.297,0.254
5/1/2023 17:49:17.760,1.219,0.305,0.258
5/1/2023 17:49:17.770,1.184,0.309,0.258
5/1/2023 17:49:17.780,1.133,0.305,0.25
5/1/2023 17:49:17.790,1.09,0.305,0.25
5/1/2023 17:49:17.800,1.051,0.305,0.234
5/1/2023 17:49:17.810,1.016,0.297,0.219
5/1/2023 17:49:17.820,1,0.289,0.211
5/1/2023 17:49:17.830,1,0.277,0.199
5/1/2023 17:49:17.840,1.008,0.273,0.191
5/1/2023 17:49:17.850,1.012,0.27,0.195
5/1/2023 17:49:17.860,1.023,0.273,0.199
5/1/2023 17:49:17.870,1.047,0.281,0.211
5/1/2023 17:49:17.880,1.082,0.297,0.223
5/1/2023 17:49:17.890,1.137,0.316,0.238
5/1/2023 17:49:17.900,1.207,0.34,0.242
5/1/2023 17:49:17.910,1.258,0.375,0.246
5/1/2023 17:49:17.920,1.301,0.414,0.25
5/1/2023 17:49:17.930,1.32,0.441,0.254
5/1/2023 17:49:17.940,1.328,0.461,0.266
5/1/2023 17:49:17.950,1.328,0.48,0.281
5/1/2023 17:49:17.960,1.32,0.496,0.301
5/1/2023 17:49:17.970,1.297,0.516,0.32
5/1/2023 17:49:17.980,1.277,0.539,0.332
5/1/2023 17:49:17.990,1.266,0.563,0.336
5/1/2023 17:49:18.000,1.25,0.59,0.344
5/1/2023 17:49:18.010,1.258,0.617,0.352
5/1/2023 17:49:18.020,1.266,0.656,0.352
5/1/2023 17:49:18.030,1.273,0.691,0.352
5/1/2023 17:49:18.040,1.281,0.73,0.355
5/1/2023 17:49:18.050,1.289,0.758,0.352
5/1/2023 17:49:18.060,1.273,0.762,0.344
5/1/2023 17:49:18.070,1.223,0.742,0.32
5/1/2023 17:49:18.080,1.168,0.711,0.297
5/1/2023 17:49:18.090,1.156,0.691,0.277
5/1/2023 17:49:18.100,1.207,0.684,0.27
5/1/2023 17:49:18.110,1.273,0.68,0.27
5/1/2023 17:49:18.120,1.336,0.688,0.273
5/1/2023 17:49:18.130,1.363,0.695,0.281
5/1/2023 17:49:18.140,1.371,0.711,0.285
5/1/2023 17:49:18.150,1.367,0.711,0.27
5/1/2023 17:49:18.160,1.379,0.699,0.242
5/1/2023 17:49:18.170,1.422,0.684,0.211
5/1/2023 17:49:18.180,1.492,0.664,0.188
5/1/2023 17:49:18.190,1.586,0.645,0.172
5/1/2023 17:49:18.200,1.68,0.633,0.148
5/1/2023 17:49:18.210,1.75,0.602,0.109
5/1/2023 17:49:18.220,1.793,0.547,0.074
5/1/2023 17:49:18.230,1.82,0.496,0.039
5/1/2023 17:49:18.240,1.824,0.441,0.012
5/1/2023 17:49:18.250,1.805,0.371,-0.012
5/1/2023 17:49:18.260,1.742,0.313,-0.023
5/1/2023 17:49:18.270,1.652,0.262,-0.035
5/1/2023 17:49:18.280,1.555,0.234,-0.035
5/1/2023 17:49:18.290,1.457,0.207,-0.031
5/1/2023 17:49:18.300,1.371,0.188,-0.016
5/1/2023 17:49:18.310,1.301,0.172,0
5/1/2023 17:49:18.320,1.242,0.16,0.023
5/1/2023 17:49:18.330,1.184,0.164,0.055
5/1/2023 17:49:18.340,1.141,0.176,0.082
5/1/2023 17:49:18.350,1.113,0.188,0.09
5/1/2023 17:49:18.360,1.105,0.199,0.082
5/1/2023 17:49:18.370,1.09,0.211,0.063
5/1/2023 17:49:18.380,1.066,0.223,0.035
5/1/2023 17:49:18.390,1.055,0.234,0.012
5/1/2023 17:49:18.400,1.051,0.25,0.004
5/1/2023 17:49:18.410,1.066,0.258,0
5/1/2023 17:49:18.420,1.09,0.266,-0.02
5/1/2023 17:49:18.430,1.098,0.266,-0.035
5/1/2023 17:49:18.440,1.082,0.25,-0.055
5/1/2023 17:49:18.450,1.059,0.23,-0.066
5/1/2023 17:49:18.460,1.031,0.215,-0.074
5/1/2023 17:49:18.470,1.012,0.203,-0.074
5/1/2023 17:49:18.480,1,0.195,-0.066
5/1/2023 17:49:18.490,1,0.18,-0.066
5/1/2023 17:49:18.500,0.988,0.168,-0.066
5/1/2023 17:49:18.510,0.984,0.152,-0.063
5/1/2023 17:49:18.520,0.977,0.145,-0.059
5/1/2023 17:49:18.530,0.965,0.137,-0.047
5/1/2023 17:49:18.540,0.949,0.141,-0.039
5/1/2023 17:49:18.550,0.926,0.125,-0.035
5/1/2023 17:49:18.560,0.891,0.113,-0.031
5/1/2023 17:49:18.570,0.84,0.098,-0.016
5/1/2023 17:49:18.580,0.781,0.09,0
5/1/2023 17:49:18.590,0.742,0.074,0.023
5/1/2023 17:49:18.600,0.754,0.09,0.047
5/1/2023 17:49:18.610,0.785,0.105,0.07
5/1/2023 17:49:18.620,0.813,0.109,0.094
5/1/2023 17:49:18.630,0.828,0.113,0.105
5/1/2023 17:49:18.640,0.848,0.125,0.113
5/1/2023 17:49:18.650,0.863,0.145,0.117
5/1/2023 17:49:18.660,0.852,0.16,0.117
5/1/2023 17:49:18.670,0.82,0.156,0.109
5/1/2023 17:49:18.680,0.805,0.156,0.105
5/1/2023 17:49:18.690,0.813,0.16,0.098
5/1/2023 17:49:18.700,0.84,0.168,0.105
5/1/2023 17:49:18.710,0.883,0.184,0.125
5/1/2023 17:49:18.720,0.941,0.203,0.145
5/1/2023 17:49:18.730,1.02,0.227,0.168
5/1/2023 17:49:18.740,1.094,0.258,0.191
5/1/2023 17:49:18.750,1.164,0.293,0.215
5/1/2023 17:49:18.760,1.215,0.32,0.223
5/1/2023 17:49:18.770,1.242,0.332,0.223
5/1/2023 17:49:18.780,1.227,0.328,0.219
5/1/2023 17:49:18.790,1.195,0.324,0.203
5/1/2023 17:49:18.800,1.16,0.324,0.18
5/1/2023 17:49:18.810,1.121,0.324,0.156
5/1/2023 17:49:18.820,1.098,0.32,0.145
5/1/2023 17:49:18.830,1.078,0.32,0.145
5/1/2023 17:49:18.840,1.082,0.309,0.148
5/1/2023 17:49:18.850,1.086,0.305,0.16
5/1/2023 17:49:18.860,1.086,0.293,0.172
5/1/2023 17:49:18.870,1.09,0.277,0.191
5/1/2023 17:49:18.880,1.102,0.27,0.207
5/1/2023 17:49:18.890,1.129,0.273,0.227
5/1/2023 17:49:18.900,1.152,0.289,0.246
5/1/2023 17:49:18.910,1.184,0.305,0.254
5/1/2023 17:49:18.920,1.223,0.324,0.25
5/1/2023 17:49:18.930,1.266,0.352,0.242
5/1/2023 17:49:18.940,1.316,0.379,0.23
5/1/2023 17:49:18.950,1.363,0.398,0.227
5/1/2023 17:49:18.960,1.41,0.422,0.234
5/1/2023 17:49:18.970,1.434,0.457,0.258
5/1/2023 17:49:18.980,1.438,0.496,0.289
5/1/2023 17:49:18.990,1.406,0.531,0.316
5/1/2023 17:49:19.000,1.355,0.559,0.34
5/1/2023 17:49:19.010,1.316,0.582,0.355
5/1/2023 17:49:19.020,1.281,0.613,0.363
5/1/2023 17:49:19.030,1.258,0.641,0.363
5/1/2023 17:49:19.040,1.258,0.676,0.363
5/1/2023 17:49:19.050,1.27,0.703,0.359
5/1/2023 17:49:19.060,1.285,0.727,0.355
5/1/2023 17:49:19.070,1.289,0.734,0.352
5/1/2023 17:49:19.080,1.281,0.738,0.344
5/1/2023 17:49:19.090,1.238,0.723,0.332
5/1/2023 17:49:19.100,1.172,0.688,0.313
5/1/2023 17:49:19.110,1.129,0.664,0.297
5/1/2023 17:49:19.120,1.145,0.672,0.289
5/1/2023 17:49:19.130,1.211,0.695,0.281
5/1/2023 17:49:19.140,1.289,0.723,0.266
5/1/2023 17:49:19.150,1.355,0.758,0.258
5/1/2023 17:49:19.160,1.387,0.793,0.258
5/1/2023 17:49:19.170,1.375,0.809,0.254
5/1/2023 17:49:19.180,1.344,0.793,0.242
5/1/2023 17:49:19.190,1.332,0.75,0.23
5/1/2023 17:49:19.200,1.371,0.707,0.227
5/1/2023 17:49:19.210,1.434,0.676,0.219
5/1/2023 17:49:19.220,1.512,0.637,0.203
5/1/2023 17:49:19.230,1.598,0.602,0.18
5/1/2023 17:49:19.240,1.68,0.555,0.16
5/1/2023 17:49:19.250,1.762,0.504,0.141
5/1/2023 17:49:19.260,1.836,0.449,0.113
5/1/2023 17:49:19.270,1.891,0.395,0.086
5/1/2023 17:49:19.280,1.898,0.336,0.063
5/1/2023 17:49:19.290,1.863,0.277,0.059
5/1/2023 17:49:19.300,1.773,0.227,0.051
5/1/2023 17:49:19.310,1.652,0.191,0.027
5/1/2023 17:49:19.320,1.527,0.172,0.008
5/1/2023 17:49:19.330,1.414,0.16,-0.008
5/1/2023 17:49:19.340,1.309,0.145,0
5/1/2023 17:49:19.350,1.219,0.152,0.008
5/1/2023 17:49:19.360,1.152,0.16,0.027
5/1/2023 17:49:19.370,1.113,0.164,0.039
5/1/2023 17:49:19.380,1.09,0.18,0.039
5/1/2023 17:49:19.390,1.055,0.199,0.031
5/1/2023 17:49:19.400,1.004,0.211,0.023
5/1/2023 17:49:19.410,0.945,0.219,0.008
5/1/2023 17:49:19.420,0.918,0.227,0
5/1/2023 17:49:19.430,0.902,0.242,0
5/1/2023 17:49:19.440,0.91,0.254,0
5/1/2023 17:49:19.450,0.93,0.262,-0.004
5/1/2023 17:49:19.460,0.938,0.266,-0.016
5/1/2023 17:49:19.470,0.934,0.262,-0.023
5/1/2023 17:49:19.480,0.934,0.25,-0.031
5/1/2023 17:49:19.490,0.934,0.227,-0.035
5/1/2023 17:49:19.500,0.941,0.211,-0.043
5/1/2023 17:49:19.510,0.957,0.191,-0.055
5/1/2023 17:49:19.520,0.961,0.184,-0.059
5/1/2023 17:49:19.530,0.961,0.168,-0.066
5/1/2023 17:49:19.540,0.945,0.145,-0.07
5/1/2023 17:49:19.550,0.941,0.125,-0.074
5/1/2023 17:49:19.560,0.949,0.113,-0.07
5/1/2023 17:49:19.570,0.945,0.102,-0.07
5/1/2023 17:49:19.580,0.934,0.098,-0.07
5/1/2023 17:49:19.590,0.906,0.098,-0.07
5/1/2023 17:49:19.600,0.863,0.078,-0.07
5/1/2023 17:49:19.610,0.852,0.07,-0.07
5/1/2023 17:49:19.620,0.871,0.074,-0.066
5/1/2023 17:49:19.630,0.93,0.102,-0.055
5/1/2023 17:49:19.640,0.988,0.129,-0.039
5/1/2023 17:49:19.650,1.023,0.164,-0.027
5/1/2023 17:49:19.660,1.035,0.211,-0.02
5/1/2023 17:49:19.670,1,0.25,-0.012
5/1/2023 17:49:19.680,0.922,0.27,0.004
5/1/2023 17:49:19.690,0.824,0.27,0.016
5/1/2023 17:49:19.700,0.762,0.262,0.039
5/1/2023 17:49:19.710,0.75,0.266,0.063
5/1/2023 17:49:19.720,0.77,0.281,0.09
5/1/2023 17:49:19.730,0.813,0.301,0.117
5/1/2023 17:49:19.740,0.883,0.324,0.137
5/1/2023 17:49:19.750,0.945,0.348,0.148
5/1/2023 17:49:19.760,1.016,0.367,0.152
5/1/2023 17:49:19.770,1.07,0.371,0.152
5/1/2023 17:49:19.780,1.109,0.375,0.141
5/1/2023 17:49:19.790,1.145,0.363,0.117
5/1/2023 17:49:19.800,1.16,0.363,0.098
5/1/2023 17:49:19.810,1.16,0.363,0.086
5/1/2023 17:49:19.820,1.137,0.363,0.074
5/1/2023 17:49:19.830,1.117,0.375,0.07
5/1/2023 17:49:19.840,1.086,0.367,0.074
5/1/2023 17:49:19.850,1.051,0.359,0.094
5/1/2023 17:49:19.860,1.027,0.332,0.125
5/1/2023 17:49:19.870,1.012,0.297,0.16
5/1/2023 17:49:19.880,1.012,0.266,0.195
5/1/2023 17:49:19.890,1.02,0.238,0.234
5/1/2023 17:49:19.900,1.043,0.219,0.27
5/1/2023 17:49:19.910,1.074,0.207,0.309
5/1/2023 17:49:19.920,1.113,0.219,0.332
5/1/2023 17:49:19.930,1.141,0.234,0.336
5/1/2023 17:49:19.940,1.156,0.254,0.32
5/1/2023 17:49:19.950,1.172,0.281,0.301
5/1/2023 17:49:19.960,1.188,0.309,0.285
5/1/2023 17:49:19.970,1.227,0.344,0.281
5/1/2023 17:49:19.980,1.258,0.371,0.293
5/1/2023 17:49:19.990,1.285,0.387,0.313
5/1/2023 17:49:20.000,1.293,0.41,0.328
5/1/2023 17:49:20.010,1.297,0.43,0.344
5/1/2023 17:49:20.020,1.285,0.449,0.348
5/1/2023 17:49:20.030,1.273,0.473,0.352
5/1/2023 17:49:20.040,1.281,0.504,0.352
5/1/2023 17:49:20.050,1.297,0.551,0.344
5/1/2023 17:49:20.060,1.324,0.602,0.352
5/1/2023 17:49:20.070,1.359,0.641,0.371
5/1/2023 17:49:20.080,1.398,0.68,0.391
5/1/2023 17:49:20.090,1.414,0.699,0.402
5/1/2023 17:49:20.100,1.387,0.699,0.395
5/1/2023 17:49:20.110,1.316,0.668,0.359
5/1/2023 17:49:20.120,1.242,0.629,0.324
5/1/2023 17:49:20.130,1.219,0.609,0.313
5/1/2023 17:49:20.140,1.266,0.613,0.313
5/1/2023 17:49:20.150,1.348,0.625,0.316
5/1/2023 17:49:20.160,1.434,0.648,0.316
5/1/2023 17:49:20.170,1.484,0.68,0.324
5/1/2023 17:49:20.180,1.48,0.695,0.32
5/1/2023 17:49:20.190,1.434,0.688,0.297
5/1/2023 17:49:20.200,1.391,0.672,0.277
5/1/2023 17:49:20.210,1.371,0.648,0.262
5/1/2023 17:49:20.220,1.371,0.621,0.25
5/1/2023 17:49:20.230,1.391,0.602,0.238
5/1/2023 17:49:20.240,1.414,0.582,0.223
5/1/2023 17:49:20.250,1.438,0.563,0.188
5/1/2023 17:49:20.260,1.473,0.523,0.148
5/1/2023 17:49:20.270,1.504,0.473,0.117
5/1/2023 17:49:20.280,1.539,0.426,0.086
5/1/2023 17:49:20.290,1.551,0.375,0.063
5/1/2023 17:49:20.300,1.52,0.328,0.043
5/1/2023 17:49:20.310,1.461,0.289,0.031
5/1/2023 17:49:20.320,1.383,0.262,0.02
5/1/2023 17:49:20.330,1.301,0.234,0.012
5/1/2023 17:49:20.340,1.227,0.211,0.012
5/1/2023 17:49:20.350,1.176,0.184,0.012
5/1/2023 17:49:20.360,1.125,0.164,0.012
5/1/2023 17:49:20.370,1.078,0.145,0.02
5/1/2023 17:49:20.380,1.031,0.145,0.039
5/1/2023 17:49:20.390,1.008,0.156,0.047
5/1/2023 17:49:20.400,0.988,0.164,0.047
5/1/2023 17:49:20.410,0.969,0.176,0.039
5/1/2023 17:49:20.420,0.953,0.184,0.035
5/1/2023 17:49:20.430,0.957,0.195,0.035
5/1/2023 17:49:20.440,0.965,0.207,0.035
5/1/2023 17:49:20.450,0.973,0.223,0.031
5/1/2023 17:49:20.460,0.984,0.234,0.023
5/1/2023 17:49:20.470,1,0.246,0.012
5/1/2023 17:49:20.480,1.016,0.25,0
5/1/2023 17:49:20.490,1.016,0.246,-0.004
5/1/2023 17:49:20.500,1,0.242,-0.02
5/1/2023 17:49:20.510,0.996,0.234,-0.023
5/1/2023 17:49:20.520,0.984,0.219,-0.039
5/1/2023 17:49:20.530,0.977,0.199,-0.051
5/1/2023 17:49:20.540,0.969,0.188,-0.059
5/1/2023 17:49:20.550,0.969,0.168,-0.063
5/1/2023 17:49:20.560,0.973,0.16,-0.059
5/1/2023 17:49:20.570,0.984,0.16,-0.055
5/1/2023 17:49:20.580,0.988,0.16,-0.047
5/1/2023 17:49:20.590,0.98,0.16,-0.043
5/1/2023 17:49:20.600,0.949,0.16,-0.039
5/1/2023 17:49:20.610,0.906,0.156,-0.027
5/1/2023 17:49:20.620,0.859,0.137,-0.008
5/1/2023 17:49:20.630,0.824,0.129,0.008
5/1/2023 17:49:20.640,0.824,0.137,0.023
5/1/2023 17:49:20.650,0.844,0.152,0.043
5/1/2023 17:49:20.660,0.875,0.184,0.066
5/1/2023 17:49:20.670,0.898,0.207,0.078
5/1/2023 17:49:20.680,0.934,0.227,0.086
5/1/2023 17:49:20.690,0.938,0.25,0.086
5/1/2023 17:49:20.700,0.914,0.25,0.094
5/1/2023 17:49:20.710,0.883,0.238,0.098
5/1/2023 17:49:20.720,0.867,0.234,0.102
5/1/2023 17:49:20.730,0.883,0.242,0.105
5/1/2023 17:49:20.740,0.906,0.254,0.117
5/1/2023 17:49:20.750,0.926,0.266,0.133
5/1/2023 17:49:20.760,0.957,0.289,0.148
5/1/2023 17:49:20.770,0.988,0.293,0.164
5/1/2023 17:49:20.780,1.016,0.301,0.168
5/1/2023 17:49:20.790,1.047,0.309,0.172
5/1/2023 17:49:20.800,1.07,0.32,0.176
5/1/2023 17:49:20.810,1.07,0.32,0.188
5/1/2023 17:49:20.820,1.047,0.324,0.188
5/1/2023 17:49:20.830,1.004,0.324,0.184
5/1/2023 17:49:20.840,0.949,0.316,0.18
5/1/2023 17:49:20.850,0.902,0.305,0.18
5/1/2023 17:49:20.860,0.875,0.285,0.184
5/1/2023 17:49:20.870,0.848,0.262,0.191
5/1/2023 17:49:20.880,0.836,0.246,0.195
5/1/2023 17:49:20.890,0.836,0.23,0.203
5/1/2023 17:49:20.900,0.848,0.219,0.215
5/1/2023 17:49:20.910,0.863,0.207,0.227
5/1/2023 17:49:20.920,0.887,0.203,0.25
5/1/2023 17:49:20.930,0.914,0.199,0.258
5/1/2023 17:49:20.940,0.941,0.207,0.254
5/1/2023 17:49:20.950,0.977,0.223,0.262
5/1/2023 17:49:20.960,1.02,0.238,0.258
5/1/2023 17:49:20.970,1.066,0.258,0.254
5/1/2023 17:49:20.980,1.121,0.285,0.258
5/1/2023 17:49:20.990,1.18,0.309,0.262
5/1/2023 17:49:21.000,1.223,0.344,0.277
5/1/2023 17:49:21.010,1.277,0.375,0.309
5/1/2023 17:49:21.020,1.313,0.402,0.328
5/1/2023 17:49:21.030,1.336,0.426,0.344
5/1/2023 17:49:21.040,1.352,0.445,0.352
5/1/2023 17:49:21.050,1.355,0.477,0.363
5/1/2023 17:49:21.060,1.367,0.508,0.367
5/1/2023 17:49:21.070,1.375,0.543,0.375
5/1/2023 17:49:21.080,1.387,0.574,0.395
5/1/2023 17:49:21.090,1.395,0.613,0.418
5/1/2023 17:49:21.100,1.41,0.66,0.445
5/1/2023 17:49:21.110,1.406,0.684,0.457
5/1/2023 17:49:21.120,1.355,0.676,0.449
5/1/2023 17:49:21.130,1.27,0.645,0.406
5/1/2023 17:49:21.140,1.207,0.605,0.375
5/1/2023 17:49:21.150,1.215,0.586,0.363
5/1/2023 17:49:21.160,1.293,0.582,0.359
5/1/2023 17:49:21.170,1.391,0.59,0.367
5/1/2023 17:49:21.180,1.469,0.602,0.387
5/1/2023 17:49:21.190,1.504,0.621,0.398
5/1/2023 17:49:21.200,1.488,0.625,0.383
5/1/2023 17:49:21.210,1.438,0.617,0.348
5/1/2023 17:49:21.220,1.395,0.605,0.297
5/1/2023 17:49:21.230,1.383,0.594,0.262
5/1/2023 17:49:21.240,1.41,0.582,0.234
5/1/2023 17:49:21.250,1.457,0.578,0.219
5/1/2023 17:49:21.260,1.512,0.57,0.191
5/1/2023 17:49:21.270,1.559,0.551,0.156
5/1/2023 17:49:21.280,1.598,0.512,0.109
5/1/2023 17:49:21.290,1.621,0.469,0.063
5/1/2023 17:49:21.300,1.617,0.422,0.035
5/1/2023 17:49:21.310,1.586,0.379,0.016
5/1/2023 17:49:21.320,1.52,0.344,0.008
5/1/2023 17:49:21.330,1.441,0.309,0.012
5/1/2023 17:49:21.340,1.359,0.281,0.02
5/1/2023 17:49:21.350,1.293,0.254,0.027
5/1/2023 17:49:21.360,1.23,0.215,0.051
5/1/2023 17:49:21.370,1.191,0.176,0.07
5/1/2023 17:49:21.380,1.164,0.164,0.078
5/1/2023 17:49:21.390,1.137,0.16,0.074
5/1/2023 17:49:21.400,1.098,0.156,0.063
5/1/2023 17:49:21.410,1.074,0.156,0.047
5/1/2023 17:49:21.420,1.043,0.164,0.035
5/1/2023 17:49:21.430,1.02,0.176,0.012
5/1/2023 17:49:21.440,1.008,0.191,0
5/1/2023 17:49:21.450,0.996,0.203,-0.016
5/1/2023 17:49:21.460,0.988,0.219,-0.016
5/1/2023 17:49:21.470,1,0.23,-0.02
5/1/2023 17:49:21.480,1.023,0.242,-0.027
5/1/2023 17:49:21.490,1.035,0.25,-0.039
5/1/2023 17:49:21.500,1.02,0.25,-0.059
5/1/2023 17:49:21.510,1,0.242,-0.07
5/1/2023 17:49:21.520,0.969,0.23,-0.082
5/1/2023 17:49:21.530,0.938,0.227,-0.082
5/1/2023 17:49:21.540,0.914,0.219,-0.078
5/1/2023 17:49:21.550,0.898,0.203,-0.074
5/1/2023 17:49:21.560,0.887,0.188,-0.063
5/1/2023 17:49:21.570,0.879,0.172,-0.051
5/1/2023 17:49:21.580,0.879,0.164,-0.043
5/1/2023 17:49:21.590,0.871,0.148,-0.039
5/1/2023 17:49:21.600,0.875,0.156,-0.031
5/1/2023 17:49:21.610,0.867,0.148,-0.031
5/1/2023 17:49:21.620,0.84,0.137,-0.02
5/1/2023 17:49:21.630,0.797,0.129,-0.012
5/1/2023 17:49:21.640,0.746,0.121,0.004
5/1/2023 17:49:21.650,0.699,0.105,0.02
5/1/2023 17:49:21.660,0.684,0.109,0.043
5/1/2023 17:49:21.670,0.719,0.121,0.074
5/1/2023 17:49:21.680,0.773,0.137,0.094
5/1/2023 17:49:21.690,0.832,0.152,0.102
5/1/2023 17:49:21.700,0.891,0.172,0.113
5/1/2023 17:49:21.710,0.941,0.199,0.117
5/1/2023 17:49:21.720,0.957,0.223,0.117
5/1/2023 17:49:21.730,0.941,0.234,0.117
5/1/2023 17:49:21.740,0.914,0.23,0.129
5/1/2023 17:49:21.750,0.902,0.23,0.137
5/1/2023 17:49:21.760,0.914,0.238,0.16
5/1/2023 17:49:21.770,0.949,0.238,0.191
5/1/2023 17:49:21.780,1.004,0.25,0.219
5/1/2023 17:49:21.790,1.07,0.262,0.238
5/1/2023 17:49:21.800,1.133,0.273,0.258
5/1/2023 17:49:21.810,1.199,0.281,0.254
5/1/2023 17:49:21.820,1.262,0.297,0.246
5/1/2023 17:49:21.830,1.297,0.293,0.227
5/1/2023 17:49:21.840,1.301,0.289,0.211
5/1/2023 17:49:21.850,1.266,0.297,0.195
5/1/2023 17:49:21.860,1.207,0.301,0.191
5/1/2023 17:49:21.870,1.133,0.289,0.203
5/1/2023 17:49:21.880,1.066,0.277,0.227
5/1/2023 17:49:21.890,1.008,0.27,0.242
5/1/2023 17:49:21.900,0.969,0.246,0.254
5/1/2023 17:49:21.910,0.938,0.223,0.25
5/1/2023 17:49:21.920,0.945,0.188,0.289
5/1/2023 17:49:21.930,0.902,0.039,0.266
5/1/2023 17:49:21.940,0.883,0.316,0.23
5/1/2023 17:49:21.950,0.895,0.277,0.246
5/1/2023 17:49:21.960,0.941,0.277,0.266
5/1/2023 17:49:21.970,0.973,0.266,0.266
5/1/2023 17:49:21.980,1.016,0.285,0.289
5/1/2023 17:49:21.990,1.047,0.309,0.301
5/1/2023 17:49:22.000,1.066,0.344,0.305
5/1/2023 17:49:22.010,1.109,0.383,0.309
5/1/2023 17:49:22.020,1.148,0.418,0.316
5/1/2023 17:49:22.030,1.199,0.438,0.336
5/1/2023 17:49:22.040,1.25,0.445,0.348
5/1/2023 17:49:22.050,1.293,0.441,0.363
5/1/2023 17:49:22.060,1.328,0.457,0.371
5/1/2023 17:49:22.070,1.344,0.473,0.367
5/1/2023 17:49:22.080,1.344,0.492,0.355
5/1/2023 17:49:22.090,1.336,0.516,0.34
5/1/2023 17:49:22.100,1.336,0.543,0.328
5/1/2023 17:49:22.110,1.34,0.578,0.344
5/1/2023 17:49:22.120,1.352,0.621,0.383
5/1/2023 17:49:22.130,1.363,0.676,0.422
5/1/2023 17:49:22.140,1.363,0.707,0.453
5/1/2023 17:49:22.150,1.332,0.707,0.465
5/1/2023 17:49:22.160,1.258,0.676,0.445
5/1/2023 17:49:22.170,1.16,0.621,0.395
5/1/2023 17:49:22.180,1.117,0.582,0.352
5/1/2023 17:49:22.190,1.156,0.582,0.328
5/1/2023 17:49:22.200,1.258,0.598,0.32
5/1/2023 17:49:22.210,1.363,0.621,0.316
5/1/2023 17:49:22.220,1.426,0.652,0.32
5/1/2023 17:49:22.230,1.438,0.68,0.324
5/1/2023 17:49:22.240,1.414,0.695,0.316
5/1/2023 17:49:22.250,1.383,0.703,0.289
5/1/2023 17:49:22.260,1.379,0.699,0.25
5/1/2023 17:49:22.270,1.41,0.684,0.223
5/1/2023 17:49:22.280,1.469,0.672,0.191
5/1/2023 17:49:22.290,1.543,0.656,0.156
5/1/2023 17:49:22.300,1.621,0.633,0.113
5/1/2023 17:49:22.310,1.691,0.602,0.074
5/1/2023 17:49:22.320,1.762,0.555,0.039
5/1/2023 17:49:22.330,1.801,0.488,0.012
5/1/2023 17:49:22.340,1.805,0.418,-0.008
5/1/2023 17:49:22.350,1.738,0.336,-0.023
5/1/2023 17:49:22.360,1.641,0.281,-0.031
5/1/2023 17:49:22.370,1.531,0.242,-0.035
5/1/2023 17:49:22.380,1.438,0.223,-0.031
5/1/2023 17:49:22.390,1.348,0.207,-0.016
5/1/2023 17:49:22.400,1.27,0.18,0.016
5/1/2023 17:49:22.410,1.203,0.168,0.039
5/1/2023 17:49:22.420,1.176,0.168,0.07
5/1/2023 17:49:22.430,1.168,0.172,0.086
5/1/2023 17:49:22.440,1.156,0.184,0.078
5/1/2023 17:49:22.450,1.125,0.191,0.055
5/1/2023 17:49:22.460,1.082,0.191,0.031
5/1/2023 17:49:22.470,1.043,0.195,0.008
5/1/2023 17:49:22.480,1.02,0.211,-0.008
5/1/2023 17:49:22.490,1.008,0.219,-0.016
5/1/2023 17:49:22.500,1.023,0.238,-0.027
5/1/2023 17:49:22.510,1.059,0.25,-0.031
5/1/2023 17:49:22.520,1.078,0.254,-0.043
5/1/2023 17:49:22.530,1.086,0.246,-0.055
5/1/2023 17:49:22.540,1.07,0.23,-0.066
5/1/2023 17:49:22.550,1.047,0.211,-0.082
5/1/2023 17:49:22.560,1.016,0.195,-0.09
5/1/2023 17:49:22.570,0.988,0.18,-0.086
5/1/2023 17:49:22.580,0.973,0.168,-0.078
5/1/2023 17:49:22.590,0.961,0.16,-0.07
5/1/2023 17:49:22.600,0.957,0.156,-0.059
5/1/2023 17:49:22.610,0.965,0.145,-0.051
5/1/2023 17:49:22.620,0.957,0.129,-0.043
5/1/2023 17:49:22.630,0.934,0.117,-0.035
5/1/2023 17:49:22.640,0.902,0.117,-0.027
5/1/2023 17:49:22.650,0.852,0.109,-0.023
5/1/2023 17:49:22.660,0.789,0.098,-0.012
5/1/2023 17:49:22.670,0.715,0.09,0
5/1/2023 17:49:22.680,0.645,0.078,0.016
5/1/2023 17:49:22.690,0.602,0.07,0.055
5/1/2023 17:49:22.700,0.629,0.082,0.098
5/1/2023 17:49:22.710,0.723,0.105,0.168
5/1/2023 17:49:22.720,0.832,0.141,0.242
5/1/2023 17:49:22.730,0.906,0.176,0.305
5/1/2023 17:49:22.740,0.961,0.215,0.328
5/1/2023 17:49:22.750,0.988,0.242,0.309
5/1/2023 17:49:22.760,1.012,0.266,0.266
5/1/2023 17:49:22.770,1.023,0.289,0.227
5/1/2023 17:49:22.780,1.023,0.32,0.191
5/1/2023 17:49:22.790,1.027,0.363,0.164
5/1/2023 17:49:22.800,1.039,0.398,0.16
5/1/2023 17:49:22.810,1.055,0.441,0.156
5/1/2023 17:49:22.820,1.082,0.504,0.16
5/1/2023 17:49:22.830,1.117,0.578,0.148
5/1/2023 17:49:22.840,1.176,0.668,0.133
5/1/2023 17:49:22.850,1.234,0.734,0.117
5/1/2023 17:49:22.860,1.273,0.777,0.125
5/1/2023 17:49:22.870,1.266,0.785,0.133
5/1/2023 17:49:22.880,1.227,0.781,0.148
5/1/2023 17:49:22.890,1.152,0.777,0.168
5/1/2023 17:49:22.900,1.063,0.777,0.191
5/1/2023 17:49:22.910,0.973,0.766,0.215
5/1/2023 17:49:22.920,0.898,0.738,0.234
5/1/2023 17:49:22.930,0.816,0.703,0.242
5/1/2023 17:49:22.940,0.723,0.656,0.219
5/1/2023 17:49:22.950,0.637,0.613,0.207
5/1/2023 17:49:22.960,0.574,0.582,0.191
5/1/2023 17:49:22.970,0.539,0.555,0.191
5/1/2023 17:49:22.980,0.52,0.551,0.191
5/1/2023 17:49:22.990,0.492,0.586,0.168
5/1/2023 17:49:23.000,0.445,0.645,0.129
5/1/2023 17:49:23.010,0.426,0.734,0.043
5/1/2023 17:49:23.020,0.41,0.844,-0.102
5/1/2023 17:49:23.030,0.387,0.875,-0.25
5/1/2023 17:49:23.040,0.367,0.844,-0.344
5/1/2023 17:49:23.050,0.371,0.859,-0.426
5/1/2023 17:49:23.060,0.379,0.961,-0.5
5/1/2023 17:49:23.070,0.41,1.105,-0.559
5/1/2023 17:49:23.080,0.465,1.219,-0.559
5/1/2023 17:49:23.090,0.516,1.297,-0.535
5/1/2023 17:49:23.100,0.551,1.32,-0.484
5/1/2023 17:49:23.110,0.602,1.301,-0.426
5/1/2023 17:49:23.120,0.652,1.281,-0.367
5/1/2023 17:49:23.130,0.695,1.223,-0.309
5/1/2023 17:49:23.140,0.754,1.113,-0.203
5/1/2023 17:49:23.150,0.883,0.992,-0.109
5/1/2023 17:49:23.160,1.031,0.957,0.059
5/1/2023 17:49:23.170,1.113,0.965,0.148
5/1/2023 17:49:23.180,1.082,0.898,0.172
5/1/2023 17:49:23.190,1.094,0.762,0.117
5/1/2023 17:49:23.200,1.066,0.605,0.055
5/1/2023 17:49:23.210,1.059,0.52,-0.016
5/1/2023 17:49:23.220,1.098,0.551,-0.059
5/1/2023 17:49:23.230,1.121,0.621,-0.07
5/1/2023 17:49:23.240,1.137,0.672,-0.063
5/1/2023 17:49:23.250,1.164,0.738,-0.086
5/1/2023 17:49:23.260,1.164,0.688,-0.164
5/1/2023 17:49:23.270,1.145,0.492,-0.254
5/1/2023 17:49:23.280,1.16,0.297,-0.344
5/1/2023 17:49:23.290,1.223,0.246,-0.43
5/1/2023 17:49:23.300,1.254,0.305,-0.484
5/1/2023 17:49:23.310,1.297,0.379,-0.496
5/1/2023 17:49:23.320,1.352,0.414,-0.488
5/1/2023 17:49:23.330,1.375,0.43,-0.492
5/1/2023 17:49:23.340,1.367,0.434,-0.516
5/1/2023 17:49:23.350,1.324,0.398,-0.535
5/1/2023 17:49:23.360,1.23,0.324,-0.539
5/1/2023 17:49:23.370,1.117,0.25,-0.547
5/1/2023 17:49:23.380,1.004,0.211,-0.559
5/1/2023 17:49:23.390,0.918,0.199,-0.566
5/1/2023 17:49:23.400,0.852,0.215,-0.559
5/1/2023 17:49:23.410,0.77,0.238,-0.535
5/1/2023 17:49:23.420,0.691,0.246,-0.488
5/1/2023 17:49:23.430,0.625,0.23,-0.438
5/1/2023 17:49:23.440,0.559,0.207,-0.367
5/1/2023 17:49:23.450,0.5,0.176,-0.289
5/1/2023 17:49:23.460,0.461,0.117,-0.203
5/1/2023 17:49:23.470,0.438,0.063,-0.129
5/1/2023 17:49:23.480,0.434,0.031,-0.094
5/1/2023 17:49:23.490,0.43,0.047,-0.098
5/1/2023 17:49:23.500,0.422,0.117,-0.121
5/1/2023 17:49:23.510,0.469,0.133,-0.137
5/1/2023 17:49:23.520,0.504,0.125,-0.164
5/1/2023 17:49:23.530,0.531,0.141,-0.191
5/1/2023 17:49:23.540,0.563,0.16,-0.215
5/1/2023 17:49:23.550,0.594,0.184,-0.238
5/1/2023 17:49:23.560,0.645,0.223,-0.266
5/1/2023 17:49:23.570,0.695,0.227,-0.273
5/1/2023 17:49:23.580,0.727,0.172,-0.25
5/1/2023 17:49:23.590,0.77,0.07,-0.215
5/1/2023 17:49:23.600,0.871,0.031,-0.203
5/1/2023 17:49:23.610,0.941,0.086,-0.254
5/1/2023 17:49:23.620,0.953,0.172,-0.332
5/1/2023 17:49:23.630,0.984,0.223,-0.383
5/1/2023 17:49:23.640,1.023,0.246,-0.418
5/1/2023 17:49:23.650,1.063,0.305,-0.461
5/1/2023 17:49:23.660,1.109,0.336,-0.512
5/1/2023 17:49:23.670,1.145,0.336,-0.539
5/1/2023 17:49:23.680,1.152,0.371,-0.559
5/1/2023 17:49:23.690,1.129,0.406,-0.566
5/1/2023 17:49:23.700,1.086,0.43,-0.539
5/1/2023 17:49:23.710,1.059,0.469,-0.508
5/1/2023 17:49:23.720,1.059,0.508,-0.473
5/1/2023 17:49:23.730,1.098,0.516,-0.43
5/1/2023 17:49:23.740,1.137,0.496,-0.371
5/1/2023 17:49:23.750,1.18,0.453,-0.309
5/1/2023 17:49:23.760,1.234,0.422,-0.27
5/1/2023 17:49:23.770,1.258,0.41,-0.242
5/1/2023 17:49:23.780,1.242,0.395,-0.23
5/1/2023 17:49:23.790,1.203,0.383,-0.246
5/1/2023 17:49:23.800,1.18,0.379,-0.273
5/1/2023 17:49:23.810,1.141,0.398,-0.297
5/1/2023 17:49:23.820,1.121,0.414,-0.305
5/1/2023 17:49:23.830,1.109,0.418,-0.285
5/1/2023 17:49:23.840,1.121,0.395,-0.246
5/1/2023 17:49:23.850,1.156,0.344,-0.195
5/1/2023 17:49:23.860,1.191,0.289,-0.129
5/1/2023 17:49:23.870,1.207,0.23,-0.055
5/1/2023 17:49:23.880,1.191,0.18,0.012
5/1/2023 17:49:23.890,1.137,0.109,0.059
5/1/2023 17:49:23.900,1.055,0.035,0.086
5/1/2023 17:49:23.910,0.938,0.004,0.098
5/1/2023 17:49:23.920,0.84,0.031,0.09
5/1/2023 17:49:23.930,0.758,0.098,0.09
5/1/2023 17:49:23.940,0.699,0.086,0.086
5/1/2023 17:49:23.950,0.652,0.047,0.102
5/1/2023 17:49:23.960,0.602,0.047,0.102
5/1/2023 17:49:23.970,0.547,0.074,0.078
5/1/2023 17:49:23.980,0.512,0.113,0.059
5/1/2023 17:49:23.990,0.488,0.164,0.059
5/1/2023 17:49:24.000,0.438,0.207,0.059
5/1/2023 17:49:24.010,0.414,0.242,0.063
5/1/2023 17:49:24.020,0.422,0.27,0.051
5/1/2023 17:49:24.030,0.441,0.293,0.043
5/1/2023 17:49:24.040,0.469,0.301,0.035
5/1/2023 17:49:24.050,0.512,0.289,0.039
5/1/2023 17:49:24.060,0.551,0.293,0.031
5/1/2023 17:49:24.070,0.586,0.309,0.012
5/1/2023 17:49:24.080,0.621,0.328,-0.008
5/1/2023 17:49:24.090,0.66,0.363,-0.012
5/1/2023 17:49:24.100,0.711,0.398,-0.008
5/1/2023 17:49:24.110,0.766,0.438,-0.008
5/1/2023 17:49:24.120,0.816,0.473,-0.012
5/1/2023 17:49:24.130,0.859,0.496,-0.023
5/1/2023 17:49:24.140,0.902,0.52,-0.031
5/1/2023 17:49:24.150,0.938,0.531,-0.039
5/1/2023 17:49:24.160,0.961,0.531,-0.055
5/1/2023 17:49:24.170,0.984,0.523,-0.055
5/1/2023 17:49:24.180,1.027,0.508,-0.063
5/1/2023 17:49:24.190,1.074,0.512,-0.063
5/1/2023 17:49:24.200,1.125,0.523,-0.051
5/1/2023 17:49:24.210,1.172,0.535,-0.02
5/1/2023 17:49:24.220,1.207,0.535,0.004
5/1/2023 17:49:24.230,1.227,0.539,0.016
5/1/2023 17:49:24.240,1.246,0.523,0.023
5/1/2023 17:49:24.250,1.281,0.5,0.031
5/1/2023 17:49:24.260,1.305,0.504,0.023
5/1/2023 17:49:24.270,1.32,0.531,0.02
5/1/2023 17:49:24.280,1.336,0.559,0.039
5/1/2023 17:49:24.290,1.344,0.609,0.055
5/1/2023 17:49:24.300,1.324,0.676,0.059
5/1/2023 17:49:24.310,1.281,0.715,0.078
5/1/2023 17:49:24.320,1.262,0.691,0.09
5/1/2023 17:49:24.330,1.285,0.664,0.059
5/1/2023 17:49:24.340,1.301,0.672,0.008
5/1/2023 17:49:24.350,1.309,0.703,-0.039
5/1/2023 17:49:24.360,1.34,0.707,-0.066
5/1/2023 17:49:24.370,1.367,0.707,-0.102
5/1/2023 17:49:24.380,1.371,0.723,-0.145
5/1/2023 17:49:24.390,1.32,0.711,-0.16
5/1/2023 17:49:24.400,1.25,0.668,-0.168
5/1/2023 17:49:24.410,1.164,0.641,-0.176
5/1/2023 17:49:24.420,1.066,0.645,-0.184
5/1/2023 17:49:24.430,0.961,0.617,-0.191
5/1/2023 17:49:24.440,0.883,0.543,-0.125
5/1/2023 17:49:24.450,0.852,0.434,-0.066
5/1/2023 17:49:24.460,0.816,0.402,-0.027
5/1/2023 17:49:24.470,0.758,0.383,-0.016
5/1/2023 17:49:24.480,0.711,0.355,-0.023
5/1/2023 17:49:24.490,0.676,0.305,-0.031
5/1/2023 17:49:24.500,0.633,0.242,-0.039
5/1/2023 17:49:24.510,0.609,0.195,-0.043
5/1/2023 17:49:24.520,0.586,0.152,-0.059
5/1/2023 17:49:24.530,0.57,0.129,-0.063
5/1/2023 17:49:24.540,0.594,0.113,-0.047
5/1/2023 17:49:24.550,0.66,0.09,-0.023
5/1/2023 17:49:24.560,0.727,0.055,0
5/1/2023 17:49:24.570,0.777,0.016,0.016
5/1/2023 17:49:24.580,0.809,-0.012,0.027
5/1/2023 17:49:24.590,0.82,-0.039,0.027
5/1/2023 17:49:24.600,0.809,-0.055,0.027
5/1/2023 17:49:24.610,0.809,-0.055,0.031
5/1/2023 17:49:24.620,0.82,-0.043,0.035
5/1/2023 17:49:24.630,0.844,-0.031,0.047
5/1/2023 17:49:24.640,0.875,-0.008,0.047
5/1/2023 17:49:24.650,0.926,0.031,0.035
5/1/2023 17:49:24.660,0.988,0.07,0.016
5/1/2023 17:49:24.670,1.082,0.102,-0.008
5/1/2023 17:49:24.680,1.176,0.141,-0.035
5/1/2023 17:49:24.690,1.246,0.176,-0.074
5/1/2023 17:49:24.700,1.277,0.215,-0.105
5/1/2023 17:49:24.710,1.285,0.266,-0.137
5/1/2023 17:49:24.720,1.242,0.32,-0.16
5/1/2023 17:49:24.730,1.184,0.367,-0.164
5/1/2023 17:49:24.740,1.094,0.395,-0.148
5/1/2023 17:49:24.750,1.02,0.414,-0.129
5/1/2023 17:49:24.760,1.012,0.441,-0.109
5/1/2023 17:49:24.770,1.07,0.473,-0.082
5/1/2023 17:49:24.780,1.141,0.5,-0.059
5/1/2023 17:49:24.790,1.211,0.531,-0.047
5/1/2023 17:49:24.800,1.25,0.559,-0.047
5/1/2023 17:49:24.810,1.227,0.578,-0.055
5/1/2023 17:49:24.820,1.145,0.59,-0.047
5/1/2023 17:49:24.830,1.043,0.594,-0.023
5/1/2023 17:49:24.840,0.949,0.598,0.012
5/1/2023 17:49:24.850,0.895,0.598,0.047
5/1/2023 17:49:24.860,0.863,0.598,0.078
5/1/2023 17:49:24.870,0.859,0.598,0.109
5/1/2023 17:49:24.880,0.863,0.582,0.141
5/1/2023 17:49:24.890,0.895,0.547,0.172
5/1/2023 17:49:24.900,0.945,0.496,0.195
5/1/2023 17:49:24.910,0.98,0.438,0.195
5/1/2023 17:49:24.920,1,0.375,0.195
5/1/2023 17:49:24.930,1.016,0.324,0.184
5/1/2023 17:49:24.940,0.992,0.281,0.18
5/1/2023 17:49:24.950,0.953,0.254,0.18
5/1/2023 17:49:24.960,0.891,0.234,0.176
5/1/2023 17:49:24.970,0.82,0.23,0.176
5/1/2023 17:49:24.980,0.742,0.223,0.207
5/1/2023 17:49:24.990,0.672,0.191,0.242
5/1/2023 17:49:25.000,0.602,0.152,0.266
5/1/2023 17:49:25.010,0.555,0.102,0.293
5/1/2023 17:49:25.020,0.52,0.066,0.309
5/1/2023 17:49:25.030,0.512,0.055,0.324
5/1/2023 17:49:25.040,0.523,0.051,0.324
5/1/2023 17:49:25.050,0.551,0.051,0.32
5/1/2023 17:49:25.060,0.59,0.07,0.316
5/1/2023 17:49:25.070,0.629,0.094,0.316
5/1/2023 17:49:25.080,0.668,0.125,0.301
5/1/2023 17:49:25.090,0.715,0.148,0.285
5/1/2023 17:49:25.100,0.77,0.172,0.277
5/1/2023 17:49:25.110,0.836,0.184,0.277
5/1/2023 17:49:25.120,0.906,0.211,0.277
5/1/2023 17:49:25.130,0.969,0.242,0.277
5/1/2023 17:49:25.140,1.027,0.273,0.27
5/1/2023 17:49:25.150,1.07,0.301,0.262
5/1/2023 17:49:25.160,1.098,0.336,0.242
5/1/2023 17:49:25.170,1.121,0.363,0.223
5/1/2023 17:49:25.180,1.137,0.391,0.207
5/1/2023 17:49:25.190,1.156,0.426,0.199
5/1/2023 17:49:25.200,1.199,0.465,0.203
5/1/2023 17:49:25.210,1.246,0.48,0.215
5/1/2023 17:49:25.220,1.285,0.5,0.242
5/1/2023 17:49:25.230,1.328,0.52,0.277
5/1/2023 17:49:25.240,1.352,0.547,0.309
5/1/2023 17:49:25.250,1.344,0.566,0.328
5/1/2023 17:49:25.260,1.328,0.563,0.34
5/1/2023 17:49:25.270,1.355,0.551,0.348
5/1/2023 17:49:25.280,1.426,0.543,0.34
5/1/2023 17:49:25.290,1.523,0.543,0.324
5/1/2023 17:49:25.300,1.629,0.543,0.32
5/1/2023 17:49:25.310,1.703,0.555,0.336
5/1/2023 17:49:25.320,1.688,0.551,0.336
5/1/2023 17:49:25.330,1.574,0.531,0.313
5/1/2023 17:49:25.340,1.422,0.5,0.262
5/1/2023 17:49:25.350,1.289,0.473,0.211
5/1/2023 17:49:25.360,1.215,0.461,0.168
5/1/2023 17:49:25.370,1.211,0.449,0.148
5/1/2023 17:49:25.380,1.238,0.434,0.141
5/1/2023 17:49:25.390,1.27,0.418,0.133
5/1/2023 17:49:25.400,1.285,0.398,0.129
5/1/2023 17:49:25.410,1.293,0.391,0.117
5/1/2023 17:49:25.420,1.297,0.379,0.105
5/1/2023 17:49:25.430,1.297,0.359,0.098
5/1/2023 17:49:25.440,1.277,0.352,0.09
5/1/2023 17:49:25.450,1.234,0.332,0.086
5/1/2023 17:49:25.460,1.188,0.313,0.094
5/1/2023 17:49:25.470,1.125,0.285,0.105
5/1/2023 17:49:25.480,1.059,0.266,0.121
5/1/2023 17:49:25.490,1,0.242,0.125
5/1/2023 17:49:25.500,0.934,0.23,0.133
5/1/2023 17:49:25.510,0.883,0.211,0.129
5/1/2023 17:49:25.520,0.832,0.195,0.105
5/1/2023 17:49:25.530,0.789,0.176,0.082
5/1/2023 17:49:25.540,0.754,0.164,0.066
5/1/2023 17:49:25.550,0.746,0.16,0.059
5/1/2023 17:49:25.560,0.754,0.164,0.051
5/1/2023 17:49:25.570,0.77,0.172,0.043
5/1/2023 17:49:25.580,0.789,0.172,0.035
5/1/2023 17:49:25.590,0.801,0.18,0.023
5/1/2023 17:49:25.600,0.809,0.184,0.008
5/1/2023 17:49:25.610,0.816,0.188,-0.008
5/1/2023 17:49:25.620,0.824,0.188,-0.023
5/1/2023 17:49:25.630,0.828,0.188,-0.039
5/1/2023 17:49:25.640,0.848,0.184,-0.055
5/1/2023 17:49:25.650,0.879,0.184,-0.063
5/1/2023 17:49:25.660,0.91,0.184,-0.066
5/1/2023 17:49:25.670,0.938,0.176,-0.07
5/1/2023 17:49:25.680,0.957,0.168,-0.063
5/1/2023 17:49:25.690,0.965,0.164,-0.059
5/1/2023 17:49:25.700,0.98,0.164,-0.059
5/1/2023 17:49:25.710,0.988,0.172,-0.059
5/1/2023 17:49:25.720,0.992,0.184,-0.047
5/1/2023 17:49:25.730,0.992,0.195,-0.043
5/1/2023 17:49:25.740,0.973,0.203,-0.035
5/1/2023 17:49:25.750,0.945,0.215,-0.027
5/1/2023 17:49:25.760,0.898,0.223,-0.02
5/1/2023 17:49:25.770,0.855,0.219,-0.008
5/1/2023 17:49:25.780,0.844,0.219,0.008
5/1/2023 17:49:25.790,0.867,0.223,0.02
5/1/2023 17:49:25.800,0.914,0.238,0.043
5/1/2023 17:49:25.810,0.957,0.262,0.059
5/1/2023 17:49:25.820,0.984,0.289,0.066
5/1/2023 17:49:25.830,1.02,0.313,0.066
5/1/2023 17:49:25.840,1.039,0.34,0.059
5/1/2023 17:49:25.850,1.012,0.359,0.063
5/1/2023 17:49:25.860,0.961,0.371,0.07
5/1/2023 17:49:25.870,0.914,0.375,0.086
5/1/2023 17:49:25.880,0.883,0.391,0.109
5/1/2023 17:49:25.890,0.867,0.41,0.145
5/1/2023 17:49:25.900,0.867,0.422,0.188
5/1/2023 17:49:25.910,0.875,0.43,0.23
5/1/2023 17:49:25.920,0.898,0.43,0.277
5/1/2023 17:49:25.930,0.934,0.426,0.301
5/1/2023 17:49:25.940,0.973,0.391,0.293
5/1/2023 17:49:25.950,1.02,0.344,0.27
5/1/2023 17:49:25.960,1.047,0.301,0.234
5/1/2023 17:49:25.970,1.055,0.273,0.191
5/1/2023 17:49:25.980,1.039,0.27,0.148
5/1/2023 17:49:25.990,1.004,0.266,0.117
5/1/2023 17:49:26.000,0.941,0.254,0.102
5/1/2023 17:49:26.010,0.883,0.227,0.102
5/1/2023 17:49:26.020,0.824,0.207,0.117
5/1/2023 17:49:26.030,0.785,0.18,0.141
5/1/2023 17:49:26.040,0.77,0.16,0.176
5/1/2023 17:49:26.050,0.789,0.152,0.223
5/1/2023 17:49:26.060,0.824,0.156,0.262
5/1/2023 17:49:26.070,0.867,0.156,0.297
5/1/2023 17:49:26.080,0.895,0.16,0.332
5/1/2023 17:49:26.090,0.91,0.176,0.348
5/1/2023 17:49:26.100,0.906,0.215,0.352
5/1/2023 17:49:26.110,0.906,0.234,0.363
5/1/2023 17:49:26.120,0.934,0.25,0.363
5/1/2023 17:49:26.130,0.977,0.273,0.359
5/1/2023 17:49:26.140,1.02,0.289,0.355
5/1/2023 17:49:26.150,1.047,0.293,0.348
5/1/2023 17:49:26.160,1.059,0.305,0.34
5/1/2023 17:49:26.170,1.066,0.328,0.344
5/1/2023 17:49:26.180,1.086,0.336,0.359
5/1/2023 17:49:26.190,1.102,0.332,0.363
5/1/2023 17:49:26.200,1.117,0.348,0.367
5/1/2023 17:49:26.210,1.148,0.371,0.379
5/1/2023 17:49:26.220,1.184,0.387,0.375
5/1/2023 17:49:26.230,1.223,0.395,0.379
5/1/2023 17:49:26.240,1.262,0.41,0.379
5/1/2023 17:49:26.250,1.301,0.441,0.391
5/1/2023 17:49:26.260,1.344,0.449,0.395
5/1/2023 17:49:26.270,1.387,0.449,0.402
5/1/2023 17:49:26.280,1.398,0.449,0.371
5/1/2023 17:49:26.290,1.375,0.43,0.316
5/1/2023 17:49:26.300,1.348,0.418,0.266
5/1/2023 17:49:26.310,1.348,0.414,0.238
5/1/2023 17:49:26.320,1.402,0.43,0.227
5/1/2023 17:49:26.330,1.469,0.449,0.23
5/1/2023 17:49:26.340,1.539,0.469,0.254
5/1/2023 17:49:26.350,1.566,0.496,0.285
5/1/2023 17:49:26.360,1.543,0.512,0.301
5/1/2023 17:49:26.370,1.488,0.52,0.281
5/1/2023 17:49:26.380,1.434,0.512,0.262
5/1/2023 17:49:26.390,1.406,0.5,0.238
5/1/2023 17:49:26.400,1.398,0.504,0.223
5/1/2023 17:49:26.410,1.375,0.496,0.211
5/1/2023 17:49:26.420,1.355,0.492,0.184
5/1/2023 17:49:26.430,1.328,0.469,0.156
5/1/2023 17:49:26.440,1.32,0.445,0.137
5/1/2023 17:49:26.450,1.316,0.426,0.121
5/1/2023 17:49:26.460,1.301,0.402,0.109
5/1/2023 17:49:26.470,1.25,0.383,0.102
5/1/2023 17:49:26.480,1.18,0.352,0.094
5/1/2023 17:49:26.490,1.109,0.32,0.078
5/1/2023 17:49:26.500,1.027,0.293,0.066
5/1/2023 17:49:26.510,0.977,0.254,0.051
5/1/2023 17:49:26.520,0.945,0.219,0.039
5/1/2023 17:49:26.530,0.934,0.203,0.027
5/1/2023 17:49:26.540,0.922,0.188,0.027
5/1/2023 17:49:26.550,0.91,0.176,0.02
5/1/2023 17:49:26.560,0.898,0.168,0.012
5/1/2023 17:49:26.570,0.875,0.164,0.008
5/1/2023 17:49:26.580,0.855,0.16,0.008
5/1/2023 17:49:26.590,0.852,0.164,0.012
5/1/2023 17:49:26.600,0.852,0.164,0.012
5/1/2023 17:49:26.610,0.859,0.172,0.008
5/1/2023 17:49:26.620,0.871,0.176,0.004
5/1/2023 17:49:26.630,0.879,0.184,0
5/1/2023 17:49:26.640,0.879,0.191,-0.004
5/1/2023 17:49:26.650,0.883,0.195,-0.016
5/1/2023 17:49:26.660,0.871,0.195,-0.027
5/1/2023 17:49:26.670,0.863,0.195,-0.035
5/1/2023 17:49:26.680,0.852,0.191,-0.039
5/1/2023 17:49:26.690,0.848,0.188,-0.051
5/1/2023 17:49:26.700,0.848,0.172,-0.059
5/1/2023 17:49:26.710,0.859,0.164,-0.059
5/1/2023 17:49:26.720,0.867,0.16,-0.066
5/1/2023 17:49:26.730,0.879,0.164,-0.074
5/1/2023 17:49:26.740,0.898,0.172,-0.082
5/1/2023 17:49:26.750,0.906,0.176,-0.094
5/1/2023 17:49:26.760,0.91,0.191,-0.102
5/1/2023 17:49:26.770,0.906,0.207,-0.094
5/1/2023 17:49:26.780,0.895,0.207,-0.09
5/1/2023 17:49:26.790,0.898,0.211,-0.09
5/1/2023 17:49:26.800,0.949,0.215,-0.078
5/1/2023 17:49:26.810,1.043,0.23,-0.074
5/1/2023 17:49:26.820,1.148,0.258,-0.07
5/1/2023 17:49:26.830,1.215,0.305,-0.066
5/1/2023 17:49:26.840,1.215,0.363,-0.059
5/1/2023 17:49:26.850,1.125,0.41,-0.035
5/1/2023 17:49:26.860,0.984,0.422,-0.016
5/1/2023 17:49:26.870,0.844,0.414,0.02
5/1/2023 17:49:26.880,0.75,0.395,0.063
5/1/2023 17:49:26.890,0.719,0.398,0.109
5/1/2023 17:49:26.900,0.742,0.414,0.156
5/1/2023 17:49:26.910,0.781,0.434,0.199
5/1/2023 17:49:26.920,0.832,0.441,0.234
5/1/2023 17:49:26.930,0.918,0.457,0.254
5/1/2023 17:49:26.940,1.008,0.465,0.25
5/1/2023 17:49:26.950,1.078,0.449,0.234
5/1/2023 17:49:26.960,1.109,0.426,0.203
5/1/2023 17:49:26.970,1.113,0.402,0.16
5/1/2023 17:49:26.980,1.082,0.379,0.117
5/1/2023 17:49:26.990,1.027,0.359,0.105
5/1/2023 17:49:27.000,0.941,0.34,0.105
5/1/2023 17:49:27.010,0.859,0.313,0.121
5/1/2023 17:49:27.020,0.789,0.281,0.141
5/1/2023 17:49:27.030,0.742,0.234,0.164
5/1/2023 17:49:27.040,0.715,0.18,0.188
5/1/2023 17:49:27.050,0.703,0.117,0.219
5/1/2023 17:49:27.060,0.711,0.078,0.25
5/1/2023 17:49:27.070,0.719,0.078,0.285
5/1/2023 17:49:27.080,0.738,0.074,0.313
5/1/2023 17:49:27.090,0.75,0.074,0.332
5/1/2023 17:49:27.100,0.762,0.09,0.344
5/1/2023 17:49:27.110,0.773,0.105,0.355
5/1/2023 17:49:27.120,0.793,0.117,0.352
5/1/2023 17:49:27.130,0.82,0.141,0.344
5/1/2023 17:49:27.140,0.848,0.16,0.34
5/1/2023 17:49:27.150,0.887,0.199,0.328
5/1/2023 17:49:27.160,0.934,0.242,0.316
5/1/2023 17:49:27.170,0.992,0.266,0.316
5/1/2023 17:49:27.180,1.059,0.273,0.328
5/1/2023 17:49:27.190,1.125,0.297,0.332
5/1/2023 17:49:27.200,1.207,0.332,0.34
5/1/2023 17:49:27.210,1.281,0.363,0.348
5/1/2023 17:49:27.220,1.352,0.395,0.363
5/1/2023 17:49:27.230,1.418,0.43,0.391
5/1/2023 17:49:27.240,1.461,0.473,0.43
5/1/2023 17:49:27.250,1.484,0.512,0.461
5/1/2023 17:49:27.260,1.477,0.531,0.48
5/1/2023 17:49:27.270,1.438,0.527,0.453
5/1/2023 17:49:27.280,1.387,0.508,0.387
5/1/2023 17:49:27.290,1.387,0.488,0.344
5/1/2023 17:49:27.300,1.469,0.496,0.336
5/1/2023 17:49:27.310,1.621,0.512,0.352
5/1/2023 17:49:27.320,1.785,0.535,0.379
5/1/2023 17:49:27.330,1.875,0.539,0.387
5/1/2023 17:49:27.340,1.848,0.516,0.359
5/1/2023 17:49:27.350,1.703,0.477,0.301
5/1/2023 17:49:27.360,1.547,0.441,0.234
5/1/2023 17:49:27.370,1.441,0.422,0.199
5/1/2023 17:49:27.380,1.379,0.41,0.195
5/1/2023 17:49:27.390,1.371,0.402,0.195
5/1/2023 17:49:27.400,1.355,0.395,0.176
5/1/2023 17:49:27.410,1.34,0.379,0.148
5/1/2023 17:49:27.420,1.316,0.355,0.113
5/1/2023 17:49:27.430,1.313,0.34,0.094
5/1/2023 17:49:27.440,1.301,0.332,0.078
5/1/2023 17:49:27.450,1.262,0.328,0.07
5/1/2023 17:49:27.460,1.199,0.309,0.066
5/1/2023 17:49:27.470,1.125,0.285,0.059
5/1/2023 17:49:27.480,1.051,0.27,0.039
5/1/2023 17:49:27.490,0.98,0.246,0.035
5/1/2023 17:49:27.500,0.922,0.219,0.02
5/1/2023 17:49:27.510,0.898,0.207,0.02
5/1/2023 17:49:27.520,0.871,0.191,0.004
5/1/2023 17:49:27.530,0.844,0.176,0
5/1/2023 17:49:27.540,0.809,0.164,-0.004
5/1/2023 17:49:27.550,0.785,0.16,0
5/1/2023 17:49:27.560,0.77,0.164,0.008
5/1/2023 17:49:27.570,0.773,0.18,0.008
5/1/2023 17:49:27.580,0.781,0.199,0.016
5/1/2023 17:49:27.590,0.805,0.219,0.02
5/1/2023 17:49:27.600,0.836,0.23,0.008
5/1/2023 17:49:27.610,0.852,0.238,-0.004
5/1/2023 17:49:27.620,0.848,0.242,-0.023
5/1/2023 17:49:27.630,0.836,0.234,-0.047
5/1/2023 17:49:27.640,0.836,0.23,-0.066
5/1/2023 17:49:27.650,0.84,0.23,-0.086
5/1/2023 17:49:27.660,0.852,0.227,-0.102
5/1/2023 17:49:27.670,0.871,0.211,-0.113
5/1/2023 17:49:27.680,0.887,0.191,-0.125
5/1/2023 17:49:27.690,0.898,0.18,-0.129
5/1/2023 17:49:27.700,0.918,0.168,-0.121
5/1/2023 17:49:27.710,0.953,0.16,-0.117
5/1/2023 17:49:27.720,0.977,0.16,-0.113
5/1/2023 17:49:27.730,0.992,0.172,-0.109
5/1/2023 17:49:27.740,0.977,0.188,-0.102
5/1/2023 17:49:27.750,0.953,0.199,-0.09
5/1/2023 17:49:27.760,0.918,0.219,-0.07
5/1/2023 17:49:27.770,0.855,0.242,-0.039
5/1/2023 17:49:27.780,0.793,0.266,0.004
5/1/2023 17:49:27.790,0.75,0.27,0.055
5/1/2023 17:49:27.800,0.773,0.273,0.098
5/1/2023 17:49:27.810,0.844,0.285,0.137
5/1/2023 17:49:27.820,0.91,0.313,0.156
5/1/2023 17:49:27.830,0.941,0.336,0.156
5/1/2023 17:49:27.840,0.965,0.328,0.129
5/1/2023 17:49:27.850,0.996,0.313,0.094
5/1/2023 17:49:27.860,1.047,0.309,0.055
5/1/2023 17:49:27.870,1.07,0.309,0.031
5/1/2023 17:49:27.880,1.059,0.324,0.031
5/1/2023 17:49:27.890,1.039,0.34,0.047
5/1/2023 17:49:27.900,1.016,0.359,0.09
5/1/2023 17:49:27.910,1.004,0.371,0.137
5/1/2023 17:49:27.920,1.008,0.375,0.188
5/1/2023 17:49:27.930,1.023,0.379,0.227
5/1/2023 17:49:27.940,1.047,0.375,0.254
5/1/2023 17:49:27.950,1.07,0.371,0.27
5/1/2023 17:49:27.960,1.09,0.363,0.273
5/1/2023 17:49:27.970,1.086,0.363,0.266
5/1/2023 17:49:27.980,1.063,0.359,0.254
5/1/2023 17:49:27.990,1.023,0.348,0.242
5/1/2023 17:49:28.000,0.957,0.32,0.23
5/1/2023 17:49:28.010,0.898,0.289,0.223
5/1/2023 17:49:28.020,0.828,0.25,0.207
5/1/2023 17:49:28.030,0.766,0.215,0.211
5/1/2023 17:49:28.040,0.715,0.191,0.211
5/1/2023 17:49:28.050,0.672,0.172,0.219
5/1/2023 17:49:28.060,0.656,0.164,0.227
5/1/2023 17:49:28.070,0.66,0.156,0.242
5/1/2023 17:49:28.080,0.68,0.16,0.27
5/1/2023 17:49:28.090,0.719,0.164,0.289
5/1/2023 17:49:28.100,0.766,0.18,0.309
5/1/2023 17:49:28.110,0.805,0.191,0.324
5/1/2023 17:49:28.120,0.848,0.219,0.344
5/1/2023 17:49:28.130,0.898,0.25,0.352
5/1/2023 17:49:28.140,0.941,0.273,0.352
5/1/2023 17:49:28.150,0.988,0.293,0.344
5/1/2023 17:49:28.160,1.027,0.316,0.34
5/1/2023 17:49:28.170,1.074,0.336,0.328
5/1/2023 17:49:28.180,1.121,0.355,0.316
5/1/2023 17:49:28.190,1.16,0.383,0.305
5/1/2023 17:49:28.200,1.207,0.406,0.309
5/1/2023 17:49:28.210,1.262,0.434,0.32
5/1/2023 17:49:28.220,1.313,0.465,0.344
5/1/2023 17:49:28.230,1.352,0.504,0.387
5/1/2023 17:49:28.240,1.379,0.539,0.426
5/1/2023 17:49:28.250,1.379,0.57,0.453
5/1/2023 17:49:28.260,1.344,0.578,0.457
5/1/2023 17:49:28.270,1.27,0.555,0.422
5/1/2023 17:49:28.280,1.191,0.516,0.336
5/1/2023 17:49:28.290,1.172,0.484,0.25
5/1/2023 17:49:28.300,1.234,0.477,0.227
5/1/2023 17:49:28.310,1.391,0.496,0.25
5/1/2023 17:49:28.320,1.555,0.531,0.281
5/1/2023 17:49:28.330,1.648,0.555,0.301
5/1/2023 17:49:28.340,1.668,0.57,0.293
5/1/2023 17:49:28.350,1.629,0.559,0.262
5/1/2023 17:49:28.360,1.602,0.551,0.227
5/1/2023 17:49:28.370,1.609,0.555,0.195
5/1/2023 17:49:28.380,1.645,0.559,0.18
5/1/2023 17:49:28.390,1.688,0.559,0.16
5/1/2023 17:49:28.400,1.723,0.559,0.137
5/1/2023 17:49:28.410,1.746,0.543,0.109
5/1/2023 17:49:28.420,1.75,0.52,0.086
5/1/2023 17:49:28.430,1.727,0.484,0.066
5/1/2023 17:49:28.440,1.66,0.441,0.059
5/1/2023 17:49:28.450,1.547,0.395,0.059
5/1/2023 17:49:28.460,1.418,0.355,0.043
5/1/2023 17:49:28.470,1.281,0.301,0.031
5/1/2023 17:49:28.480,1.164,0.262,0.023
5/1/2023 17:49:28.490,1.066,0.242,0.027
5/1/2023 17:49:28.500,0.977,0.234,0.023
5/1/2023 17:49:28.510,0.922,0.215,0.027
5/1/2023 17:49:28.520,0.883,0.195,0.023
5/1/2023 17:49:28.530,0.867,0.168,0.023
5/1/2023 17:49:28.540,0.859,0.16,0.012
5/1/2023 17:49:28.550,0.855,0.172,0
5/1/2023 17:49:28.560,0.844,0.191,-0.012
5/1/2023 17:49:28.570,0.844,0.195,-0.016
5/1/2023 17:49:28.580,0.859,0.188,-0.016
5/1/2023 17:49:28.590,0.887,0.176,-0.027
5/1/2023 17:49:28.600,0.906,0.176,-0.051
5/1/2023 17:49:28.610,0.898,0.188,-0.07
5/1/2023 17:49:28.620,0.887,0.207,-0.086
5/1/2023 17:49:28.630,0.879,0.215,-0.094
5/1/2023 17:49:28.640,0.879,0.223,-0.082
5/1/2023 17:49:28.650,0.879,0.207,-0.063
5/1/2023 17:49:28.660,0.879,0.18,-0.043
5/1/2023 17:49:28.670,0.891,0.156,-0.027
5/1/2023 17:49:28.680,0.906,0.172,-0.004
5/1/2023 17:49:28.690,0.934,0.227,0.027
5/1/2023 17:49:28.700,0.977,0.301,0.059
5/1/2023 17:49:28.710,1.047,0.371,0.102
5/1/2023 17:49:28.720,1.113,0.398,0.109
5/1/2023 17:49:28.730,1.137,0.418,0.102
5/1/2023 17:49:28.740,1.098,0.41,0.105
5/1/2023 17:49:28.750,1.031,0.398,0.133
5/1/2023 17:49:28.760,0.973,0.434,0.184
5/1/2023 17:49:28.770,0.969,0.566,0.285
5/1/2023 17:49:28.780,1.039,0.719,0.375
5/1/2023 17:49:28.790,1.129,0.805,0.453
5/1/2023 17:49:28.800,1.172,0.836,0.527
5/1/2023 17:49:28.810,1.176,0.879,0.633
5/1/2023 17:49:28.820,1.133,0.938,0.773
5/1/2023 17:49:28.830,1.004,0.906,0.922
5/1/2023 17:49:28.840,0.828,0.813,1.035
5/1/2023 17:49:28.850,0.668,0.73,1.109
5/1/2023 17:49:28.860,0.582,0.68,1.156
5/1/2023 17:49:28.870,0.555,0.637,1.164
5/1/2023 17:49:28.880,0.559,0.586,1.141
5/1/2023 17:49:28.890,0.555,0.484,1.109
5/1/2023 17:49:28.900,0.527,0.344,1.082
5/1/2023 17:49:28.910,0.477,0.199,1.051
5/1/2023 17:49:28.920,0.434,0.105,1.02
5/1/2023 17:49:28.930,0.387,0.051,1.008
5/1/2023 17:49:28.940,0.352,0.012,1
5/1/2023 17:49:28.950,0.324,-0.031,0.973
5/1/2023 17:49:28.960,0.293,-0.09,0.926
5/1/2023 17:49:28.970,0.262,-0.145,0.844
5/1/2023 17:49:28.980,0.219,-0.184,0.758
5/1/2023 17:49:28.990,0.176,-0.188,0.656
5/1/2023 17:49:29.000,0.113,-0.168,0.551
5/1/2023 17:49:29.010,0.059,-0.117,0.496
5/1/2023 17:49:29.020,0.016,-0.059,0.449
5/1/2023 17:49:29.030,-0.016,-0.031,0.434
5/1/2023 17:49:29.040,-0.039,-0.035,0.457
5/1/2023 17:49:29.050,-0.047,-0.039,0.508
5/1/2023 17:49:29.060,-0.043,-0.035,0.563
5/1/2023 17:49:29.070,-0.023,-0.035,0.586
5/1/2023 17:49:29.080,-0.004,-0.031,0.598
5/1/2023 17:49:29.090,0.008,-0.047,0.598
5/1/2023 17:49:29.100,-0.008,-0.078,0.582
5/1/2023 17:49:29.110,-0.031,-0.082,0.586
5/1/2023 17:49:29.120,-0.055,-0.082,0.598
5/1/2023 17:49:29.130,-0.066,-0.07,0.656
5/1/2023 17:49:29.140,-0.074,-0.047,0.738
5/1/2023 17:49:29.150,-0.055,-0.031,0.82
5/1/2023 17:49:29.160,-0.023,-0.023,0.883
5/1/2023 17:49:29.170,0.008,-0.02,0.941
5/1/2023 17:49:29.180,0.02,-0.027,0.98
5/1/2023 17:49:29.190,0.012,-0.051,1.023
5/1/2023 17:49:29.200,-0.027,-0.055,1.047
5/1/2023 17:49:29.210,-0.059,-0.012,1.082
5/1/2023 17:49:29.220,-0.082,0.035,1.133
5/1/2023 17:49:29.230,-0.078,0.023,1.168
5/1/2023 17:49:29.240,-0.059,-0.023,1.195
5/1/2023 17:49:29.250,-0.012,-0.047,1.203
5/1/2023 17:49:29.260,0.035,-0.039,1.191
5/1/2023 17:49:29.270,0.055,-0.008,1.18
5/1/2023 17:49:29.280,0.012,0.074,1.164
5/1/2023 17:49:29.290,-0.023,0.152,1.18
5/1/2023 17:49:29.300,-0.031,0.199,1.246
5/1/2023 17:49:29.310,-0.012,0.203,1.324
5/1/2023 17:49:29.320,0.043,0.199,1.375
5/1/2023 17:49:29.330,0.102,0.191,1.352
5/1/2023 17:49:29.340,0.121,0.188,1.262
5/1/2023 17:49:29.350,0.082,0.203,1.172
5/1/2023 17:49:29.360,0.016,0.219,1.105
5/1/2023 17:49:29.370,-0.02,0.25,1.09
5/1/2023 17:49:29.380,0.008,0.316,1.117
5/1/2023 17:49:29.390,0.094,0.227,1.18
5/1/2023 17:49:29.400,0.16,0.094,1.281
5/1/2023 17:49:29.410,0.133,-0.027,1.305
5/1/2023 17:49:29.420,0.066,-0.156,1.242
5/1/2023 17:49:29.430,0.023,-0.145,1.148
5/1/2023 17:49:29.440,0.039,0.012,1.035
5/1/2023 17:49:29.450,0.063,0.152,0.922
5/1/2023 17:49:29.460,0.035,0.207,0.813
5/1/2023 17:49:29.470,-0.004,0.207,0.723
5/1/2023 17:49:29.480,-0.031,0.18,0.648
5/1/2023 17:49:29.490,-0.027,0.129,0.605
5/1/2023 17:49:29.500,-0.023,0.066,0.566
5/1/2023 17:49:29.510,-0.012,0,0.547
5/1/2023 17:49:29.520,-0.02,-0.055,0.527
5/1/2023 17:49:29.530,-0.035,-0.082,0.531
5/1/2023 17:49:29.540,-0.039,-0.09,0.559
5/1/2023 17:49:29.550,-0.043,-0.09,0.582
5/1/2023 17:49:29.560,-0.055,-0.102,0.598
5/1/2023 17:49:29.570,-0.07,-0.105,0.621
5/1/2023 17:49:29.580,-0.09,-0.117,0.641
5/1/2023 17:49:29.590,-0.102,-0.125,0.676
5/1/2023 17:49:29.600,-0.098,-0.141,0.727
5/1/2023 17:49:29.610,-0.086,-0.16,0.781
5/1/2023 17:49:29.620,-0.078,-0.188,0.836
5/1/2023 17:49:29.630,-0.059,-0.203,0.879
5/1/2023 17:49:29.640,-0.043,-0.207,0.926
5/1/2023 17:49:29.650,-0.02,-0.203,0.961
5/1/2023 17:49:29.660,-0.012,-0.18,0.996
5/1/2023 17:49:29.670,0,-0.141,1.027
5/1/2023 17:49:29.680,0.012,-0.109,1.066
5/1/2023 17:49:29.690,0.023,-0.07,1.109
5/1/2023 17:49:29.700,0.039,-0.059,1.18
5/1/2023 17:49:29.710,0.074,-0.082,1.266
5/1/2023 17:49:29.720,0.125,-0.102,1.352
